Timestamp,Acce_x,Acce_y,Acce_z,Gyro_x,Gyro_y,Gyro_z,Label
2025-03-15 10:31:17.301794,-0.12,-0.01,9.86,-0.03,0.01,-0.00,
2025-03-15 10:31:17.324914,-0.16,-0.02,9.94,-0.03,0.01,-0.01,
2025-03-15 10:31:17.354586,-0.18,-0.04,9.93,-0.03,0.00,-0.00,
2025-03-15 10:31:17.380722,-0.13,-0.02,9.93,-0.03,0.01,-0.01,
2025-03-15 10:31:17.405179,-0.12,-0.05,9.96,-0.02,0.01,-0.00,
2025-03-15 10:31:17.433519,-0.10,-0.03,9.93,-0.03,0.00,-0.00,
2025-03-15 10:31:17.460590,-0.14,-0.02,9.93,-0.02,0.01,-0.00,
2025-03-15 10:31:17.484368,-0.13,-0.03,9.95,-0.03,0.01,-0.01,
2025-03-15 10:31:17.511231,-0.11,-0.06,9.91,-0.02,0.01,-0.01,
2025-03-15 10:31:17.538986,-0.10,0.03,9.96,-0.02,0.01,-0.01,
2025-03-15 10:31:17.564164,-0.16,-0.04,9.91,-0.03,0.01,-0.01,
2025-03-15 10:31:17.590708,-0.11,-0.04,9.92,-0.03,0.01,-0.01,
2025-03-15 10:31:17.625661,-0.16,-0.05,9.88,-0.03,0.01,-0.01,
2025-03-15 10:31:17.645751,-0.08,-0.07,9.94,-0.02,0.01,-0.01,
2025-03-15 10:31:17.670521,-0.11,-0.03,9.92,-0.03,0.01,-0.01,
2025-03-15 10:31:17.697482,-0.12,0.00,9.95,-0.02,0.00,-0.01,
2025-03-15 10:31:17.731731,-0.11,0.01,9.95,-0.03,0.01,-0.01,
2025-03-15 10:31:17.751095,-0.12,-0.04,9.97,-0.03,0.00,-0.01,
2025-03-15 10:31:17.777384,-0.15,0.02,9.88,-0.02,0.00,-0.01,
2025-03-15 10:31:17.803818,-0.13,-0.00,9.91,-0.02,0.01,0.00,
2025-03-15 10:31:17.830520,-0.19,0.01,9.91,-0.02,0.01,0.00,
2025-03-15 10:31:17.866937,-0.12,-0.06,9.88,-0.02,0.01,-0.01,
2025-03-15 10:31:17.883362,-0.13,-0.01,9.90,-0.03,0.01,-0.01,
2025-03-15 10:31:17.912540,-0.10,-0.04,9.89,-0.02,0.01,-0.01,
2025-03-15 10:31:17.938200,-0.12,-0.04,9.92,-0.03,0.01,-0.01,
2025-03-15 10:31:17.987057,-0.13,-0.02,9.88,-0.02,0.01,-0.01,
2025-03-15 10:31:17.994005,-0.13,0.03,9.95,-0.03,0.01,-0.00,
2025-03-15 10:31:18.016910,-0.15,-0.06,9.98,-0.02,0.01,-0.01,
2025-03-15 10:31:18.042844,-0.16,-0.01,10.00,-0.02,0.01,-0.00,
2025-03-15 10:31:18.071688,-0.14,-0.01,9.96,-0.02,0.01,-0.01,
2025-03-15 10:31:18.107941,-0.15,-0.04,9.99,-0.02,0.01,-0.01,
2025-03-15 10:31:18.122680,-0.19,0.02,9.87,-0.02,0.01,-0.00,
2025-03-15 10:31:18.149163,-0.13,-0.04,9.89,-0.03,0.01,-0.01,
2025-03-15 10:31:18.178236,-0.21,0.00,9.96,-0.02,0.00,-0.01,
2025-03-15 10:31:18.213243,-0.04,-0.01,9.91,-0.02,0.01,-0.01,
2025-03-15 10:31:18.232823,-0.17,-0.05,9.95,-0.03,0.00,-0.01,
2025-03-15 10:31:18.256263,-0.10,-0.06,9.92,-0.02,0.01,-0.00,
2025-03-15 10:31:18.281857,-0.18,0.02,9.90,-0.02,0.00,-0.01,
2025-03-15 10:31:18.308351,-0.10,-0.06,9.92,-0.02,0.00,-0.01,
2025-03-15 10:31:18.337194,-0.13,-0.03,9.94,-0.03,0.01,-0.00,
2025-03-15 10:31:18.362793,-0.11,-0.05,9.85,-0.03,0.01,-0.01,
2025-03-15 10:31:18.388194,-0.22,-0.01,9.90,-0.02,0.01,-0.01,
2025-03-15 10:31:18.414918,-0.17,-0.02,9.93,-0.02,0.01,-0.00,
2025-03-15 10:31:18.455437,-0.08,-0.00,9.93,-0.02,0.01,-0.00,
2025-03-15 10:31:18.469318,-0.07,-0.01,9.90,-0.03,0.00,-0.01,
2025-03-15 10:31:18.498099,-0.11,-0.04,9.94,-0.02,0.01,-0.01,
2025-03-15 10:31:18.521231,-0.17,0.00,9.92,-0.03,0.00,-0.01,
2025-03-15 10:31:18.569262,-0.14,-0.01,9.92,-0.02,0.01,-0.01,
2025-03-15 10:31:18.578922,-0.12,-0.06,9.93,-0.02,0.01,-0.01,
2025-03-15 10:31:18.600330,-0.12,0.05,9.90,-0.03,0.00,-0.01,
2025-03-15 10:31:18.627020,-0.13,-0.05,9.91,-0.02,0.01,-0.01,
2025-03-15 10:31:18.655724,-0.11,-0.04,9.90,-0.02,0.01,-0.01,
2025-03-15 10:31:18.680445,-0.08,-0.10,9.86,-0.03,0.01,-0.01,
2025-03-15 10:31:18.717608,-0.19,-0.01,9.96,-0.03,0.01,-0.01,
2025-03-15 10:31:18.733786,-0.08,-0.04,9.88,-0.03,0.01,-0.01,
2025-03-15 10:31:18.759928,-0.16,-0.05,9.91,-0.02,0.00,-0.01,
2025-03-15 10:31:18.788377,-0.12,-0.04,9.93,-0.02,0.01,-0.00,
2025-03-15 10:31:18.825193,-0.13,-0.03,9.88,-0.02,0.01,-0.01,
2025-03-15 10:31:18.840117,-0.14,-0.04,9.94,-0.03,0.01,-0.01,
2025-03-15 10:31:18.866516,-0.12,-0.02,9.91,-0.03,0.01,-0.01,
2025-03-15 10:31:18.894204,-0.14,-0.05,9.93,-0.02,0.00,-0.00,
2025-03-15 10:31:18.922874,-0.10,-0.00,9.88,-0.03,0.01,-0.01,
2025-03-15 10:31:18.946538,-0.12,-0.02,9.91,-0.03,0.01,-0.00,
2025-03-15 10:31:18.974142,-0.13,0.00,9.81,-0.03,0.00,-0.01,
2025-03-15 10:31:18.999601,-0.10,-0.02,10.01,-0.02,0.01,-0.00,
2025-03-15 10:31:19.026267,-0.13,-0.01,9.96,-0.03,0.00,-0.00,
2025-03-15 10:31:19.064768,-0.13,-0.06,9.96,-0.03,0.01,-0.00,
2025-03-15 10:31:19.079726,-0.08,-0.05,9.94,-0.02,0.01,-0.01,
2025-03-15 10:31:19.106168,-0.17,-0.08,9.95,-0.02,0.01,-0.00,
2025-03-15 10:31:19.132597,-0.12,-0.03,9.99,-0.02,0.01,-0.01,
2025-03-15 10:31:19.161912,-0.12,-0.10,9.93,-0.03,0.01,-0.01,
2025-03-15 10:31:19.189730,-0.12,-0.05,9.90,-0.02,0.01,-0.01,
2025-03-15 10:31:19.212516,-0.12,-0.03,9.90,-0.03,0.00,-0.00,
2025-03-15 10:31:19.239233,-0.11,0.01,9.93,-0.02,0.00,-0.01,
2025-03-15 10:31:19.266139,-0.10,0.04,9.86,-0.03,0.01,-0.01,
2025-03-15 10:31:19.305559,-0.07,-0.08,9.98,-0.03,0.00,-0.01,
2025-03-15 10:31:19.318902,-0.11,-0.01,9.90,-0.02,0.01,-0.01,
2025-03-15 10:31:19.349993,-0.09,0.00,9.93,-0.02,0.01,-0.01,
2025-03-15 10:31:19.373345,-0.11,-0.02,9.87,-0.03,0.01,-0.01,
2025-03-15 10:31:19.403582,-0.13,-0.09,9.90,-0.02,0.00,-0.00,
2025-03-15 10:31:19.426501,-0.12,-0.04,10.00,-0.03,0.01,-0.01,
2025-03-15 10:31:19.452180,-0.19,-0.04,9.94,-0.03,0.01,-0.01,
2025-03-15 10:31:19.479297,-0.06,0.00,9.93,-0.02,0.00,-0.00,
2025-03-15 10:31:19.505315,-0.11,-0.01,9.92,-0.02,0.01,-0.01,
2025-03-15 10:31:19.533307,-0.13,-0.03,9.94,-0.03,0.01,-0.01,
2025-03-15 10:31:19.561457,-0.14,0.00,9.87,-0.03,0.01,-0.00,
2025-03-15 10:31:19.584392,-0.13,-0.05,9.95,-0.02,0.01,-0.00,
2025-03-15 10:31:19.611120,-0.11,-0.01,9.90,-0.03,0.00,-0.00,
2025-03-15 10:31:19.644551,-0.11,-0.02,9.94,-0.02,0.01,-0.01,
2025-03-15 10:31:19.664384,-0.16,-0.03,9.88,-0.02,0.00,-0.01,
2025-03-15 10:31:19.693388,-0.14,-0.03,9.93,-0.02,0.01,-0.01,
2025-03-15 10:31:19.718899,-0.13,-0.07,9.95,-0.02,0.01,-0.01,
2025-03-15 10:31:19.744170,-0.12,-0.09,9.91,-0.02,0.01,-0.00,
2025-03-15 10:31:19.776358,-0.06,-0.05,9.93,-0.03,0.01,-0.01,
2025-03-15 10:31:19.797307,-0.10,-0.06,9.90,-0.03,0.01,-0.01,
2025-03-15 10:31:19.823982,-0.10,-0.01,9.91,-0.03,0.01,-0.01,
2025-03-15 10:31:19.850514,-0.10,0.00,9.88,-0.02,0.01,-0.01,
2025-03-15 10:31:19.877469,-0.11,-0.08,9.94,-0.02,0.01,-0.01,
2025-03-15 10:31:19.914576,-0.12,-0.09,9.87,-0.03,0.00,-0.00,
2025-03-15 10:31:19.930673,-0.12,-0.08,9.92,-0.03,0.00,-0.01,
2025-03-15 10:31:19.957736,-0.11,-0.00,9.93,-0.02,0.01,-0.01,
2025-03-15 10:31:19.986314,-0.15,-0.04,9.91,-0.03,0.00,-0.01,
2025-03-15 10:31:20.010558,-0.11,-0.07,9.96,-0.03,0.01,-0.01,
2025-03-15 10:31:20.037142,-0.09,-0.05,9.92,-0.03,0.01,-0.01,
2025-03-15 10:31:20.064850,-0.10,-0.06,9.93,-0.03,0.00,-0.01,
2025-03-15 10:31:20.091144,-0.15,-0.01,9.90,-0.03,0.01,-0.01,
2025-03-15 10:31:20.130325,-0.11,-0.06,9.93,-0.02,0.00,-0.01,
2025-03-15 10:31:20.153188,-0.13,-0.02,9.95,-0.03,0.01,-0.01,
2025-03-15 10:31:20.170506,-0.12,-0.04,9.95,-0.02,0.01,-0.01,
2025-03-15 10:31:20.197448,-0.16,-0.01,9.91,-0.03,0.01,-0.00,
2025-03-15 10:31:20.225403,-0.13,0.01,9.94,-0.02,0.01,-0.01,
2025-03-15 10:31:20.259599,-0.10,-0.06,9.93,-0.02,0.01,-0.01,
2025-03-15 10:31:20.281667,-0.10,-0.04,9.89,-0.02,0.01,-0.01,
2025-03-15 10:31:20.305096,-0.09,-0.04,9.98,-0.03,0.00,-0.01,
2025-03-15 10:31:20.330200,-0.12,-0.08,9.85,-0.02,0.01,-0.00,
2025-03-15 10:31:20.360177,-0.12,-0.03,9.92,-0.02,0.01,-0.01,
2025-03-15 10:31:20.383936,-0.12,-0.07,9.92,-0.03,0.01,-0.01,
2025-03-15 10:31:20.427826,-0.17,-0.02,9.94,-0.02,0.01,-0.00,
2025-03-15 10:31:20.440018,-0.11,0.01,9.91,-0.02,0.01,-0.01,
2025-03-15 10:31:20.464580,-0.14,-0.05,9.91,-0.03,0.01,-0.01,
2025-03-15 10:31:20.501210,-0.12,-0.04,9.89,-0.03,0.01,-0.01,
2025-03-15 10:31:20.516545,-0.09,0.02,9.91,-0.03,0.01,-0.01,
2025-03-15 10:31:20.542954,-0.14,0.00,9.94,-0.02,0.00,-0.00,
2025-03-15 10:31:20.569613,-0.09,-0.00,9.94,-0.03,0.01,-0.00,
2025-03-15 10:31:20.600869,-0.14,-0.02,9.96,-0.02,0.01,-0.01,
2025-03-15 10:31:20.625649,-0.11,0.01,9.95,-0.03,0.01,-0.01,
2025-03-15 10:31:20.649828,-0.10,-0.00,9.94,-0.02,0.00,-0.01,
2025-03-15 10:31:20.675520,-0.13,-0.08,9.94,-0.02,0.00,-0.01,
2025-03-15 10:31:20.703731,-0.10,0.02,9.90,-0.03,0.01,-0.01,
2025-03-15 10:31:20.733945,-0.11,-0.01,9.95,-0.02,0.01,-0.01,
2025-03-15 10:31:20.758116,-0.10,-0.04,9.90,-0.02,0.00,-0.00,
2025-03-15 10:31:20.784086,-0.13,0.02,9.93,-0.02,0.01,-0.00,
2025-03-15 10:31:20.808768,-0.14,0.03,9.95,-0.03,0.01,-0.00,
2025-03-15 10:31:20.836586,-0.17,-0.02,9.93,-0.02,0.01,-0.01,
2025-03-15 10:31:20.865824,-0.13,-0.03,9.91,-0.02,0.01,-0.01,
2025-03-15 10:31:20.888732,-0.11,-0.03,9.88,-0.02,0.01,-0.01,
2025-03-15 10:31:20.915265,-0.20,-0.01,9.93,-0.03,0.01,-0.01,
2025-03-15 10:31:20.944423,-0.14,-0.03,9.96,-0.02,0.01,-0.00,
2025-03-15 10:31:20.968392,-0.15,-0.05,9.94,-0.03,0.01,-0.00,
2025-03-15 10:31:20.998169,-0.12,-0.02,9.91,-0.02,0.01,-0.00,
2025-03-15 10:31:21.025381,-0.11,-0.03,9.97,-0.03,0.01,-0.01,
2025-03-15 10:31:21.049085,-0.06,0.00,9.93,-0.02,0.00,-0.01,
2025-03-15 10:31:21.076343,-0.08,-0.02,9.98,-0.02,0.01,-0.00,
2025-03-15 10:31:21.105278,-0.07,0.01,9.93,-0.02,0.01,-0.00,
2025-03-15 10:31:21.128186,-0.09,-0.02,9.93,-0.02,0.00,-0.00,
2025-03-15 10:31:21.156071,-0.12,-0.01,9.91,-0.02,0.00,-0.00,
2025-03-15 10:31:21.181075,-0.15,-0.04,9.95,-0.02,0.00,-0.01,
2025-03-15 10:31:21.208130,-0.16,-0.02,9.92,-0.03,0.01,-0.00,
2025-03-15 10:31:21.238347,-0.13,0.05,9.91,-0.03,0.01,-0.01,
2025-03-15 10:31:21.261552,-0.13,0.02,9.90,-0.03,0.01,-0.01,
2025-03-15 10:31:21.287530,-0.11,-0.01,9.95,-0.02,0.01,-0.01,
2025-03-15 10:31:21.314051,-0.11,-0.02,9.97,-0.02,0.01,-0.01,
2025-03-15 10:31:21.340930,-0.15,0.01,9.91,-0.02,0.01,-0.01,
2025-03-15 10:31:21.368126,-0.12,-0.03,9.88,-0.03,0.01,-0.01,
2025-03-15 10:31:21.396859,-0.11,-0.02,9.95,-0.03,0.01,-0.01,
2025-03-15 10:31:21.421268,-0.11,-0.04,9.90,-0.02,0.01,0.00,
2025-03-15 10:31:21.448616,-0.08,0.00,9.94,-0.02,0.01,-0.01,
2025-03-15 10:31:21.474442,-0.08,-0.01,9.90,-0.03,0.00,-0.01,
2025-03-15 10:31:21.501659,-0.10,-0.03,9.87,-0.03,0.01,-0.01,
2025-03-15 10:31:21.527723,-0.13,0.00,9.96,-0.03,0.01,-0.00,
2025-03-15 10:31:21.554247,-0.07,-0.00,9.95,-0.02,0.00,-0.01,
2025-03-15 10:31:21.581183,-0.10,-0.03,9.92,-0.02,0.01,-0.01,
2025-03-15 10:31:21.621617,-0.15,0.04,9.90,-0.03,0.01,-0.01,
2025-03-15 10:31:21.635430,-0.09,-0.05,9.90,-0.02,0.01,-0.01,
2025-03-15 10:31:21.665985,-0.15,-0.00,9.92,-0.02,0.01,-0.00,
2025-03-15 10:31:21.688683,-0.09,-0.05,9.95,-0.02,0.01,-0.01,
2025-03-15 10:31:21.713520,-0.16,-0.02,9.91,-0.02,0.00,-0.01,
2025-03-15 10:31:21.742080,-0.12,-0.03,9.92,-0.02,0.00,-0.00,
2025-03-15 10:31:21.766708,-0.09,-0.03,9.88,-0.02,0.01,0.00,
2025-03-15 10:31:21.793463,-0.10,-0.06,9.94,-0.02,0.00,-0.01,
2025-03-15 10:31:21.820969,-0.16,0.00,9.89,-0.03,0.01,0.00,
2025-03-15 10:31:21.846621,-0.08,0.01,9.91,-0.02,0.01,-0.00,
2025-03-15 10:31:21.873064,-0.10,-0.02,9.96,-0.02,0.01,-0.00,
2025-03-15 10:31:21.899825,-0.11,-0.07,9.93,-0.02,0.01,-0.01,
2025-03-15 10:31:21.926842,-0.06,-0.01,9.94,-0.02,0.01,-0.01,
2025-03-15 10:31:21.959844,-0.13,-0.01,9.93,-0.03,0.01,-0.01,
2025-03-15 10:31:21.979380,-0.11,-0.02,9.93,-0.02,0.00,-0.01,
2025-03-15 10:31:22.006332,-0.11,-0.05,9.91,-0.02,0.01,-0.00,
2025-03-15 10:31:22.032771,-0.11,-0.06,9.93,-0.02,0.01,-0.01,
2025-03-15 10:31:22.059303,-0.14,-0.03,9.95,-0.03,0.01,-0.01,
2025-03-15 10:31:22.086072,-0.17,-0.04,9.98,-0.02,0.00,-0.01,
2025-03-15 10:31:22.112984,-0.09,-0.01,9.88,-0.02,0.01,-0.00,
2025-03-15 10:31:22.139165,-0.10,-0.01,9.91,-0.03,0.00,-0.01,
2025-03-15 10:31:22.167722,-0.12,-0.04,9.93,-0.03,0.01,-0.00,
2025-03-15 10:31:22.192364,-0.11,-0.04,9.93,-0.03,0.01,-0.00,
2025-03-15 10:31:22.219016,-0.19,0.01,9.94,-0.03,0.01,-0.01,
2025-03-15 10:31:22.245517,-0.07,-0.02,9.96,-0.03,0.01,-0.01,
2025-03-15 10:31:22.276121,-0.05,-0.06,9.95,-0.02,0.00,-0.01,
2025-03-15 10:31:22.298649,-0.13,0.02,9.93,-0.02,0.01,-0.00,
2025-03-15 10:31:22.325478,-0.11,-0.02,9.91,-0.02,0.01,-0.01,
2025-03-15 10:31:22.352063,-0.12,-0.04,9.93,-0.02,0.01,-0.00,
2025-03-15 10:31:22.378585,-0.17,-0.00,9.98,-0.02,0.01,-0.00,
2025-03-15 10:31:22.405008,-0.06,-0.03,9.95,-0.03,0.01,0.00,
2025-03-15 10:31:22.431782,-0.11,0.01,9.96,-0.02,0.01,-0.00,
2025-03-15 10:31:22.458419,-0.11,-0.04,9.98,-0.03,0.01,-0.01,
2025-03-15 10:31:22.494114,-0.18,-0.06,9.92,-0.02,0.01,-0.01,
2025-03-15 10:31:22.511427,-0.11,-0.02,9.86,-0.03,0.01,-0.01,
2025-03-15 10:31:22.539407,-0.08,-0.03,9.87,-0.03,0.01,-0.00,
2025-03-15 10:31:22.564654,-0.09,-0.02,9.91,-0.02,0.01,-0.00,
2025-03-15 10:31:22.591248,-0.11,-0.07,9.99,-0.03,0.00,-0.01,
2025-03-15 10:31:22.617654,-0.16,-0.01,9.90,-0.02,0.01,-0.01,
2025-03-15 10:31:22.650052,-0.13,0.01,9.94,-0.02,0.01,-0.00,
2025-03-15 10:31:22.671882,-0.09,-0.05,9.97,-0.02,0.01,-0.01,
2025-03-15 10:31:22.697848,-0.12,0.03,9.93,-0.02,0.01,-0.01,
2025-03-15 10:31:22.727467,-0.14,-0.02,9.85,-0.03,0.01,-0.00,
2025-03-15 10:31:22.753045,-0.12,-0.05,9.96,-0.02,0.00,-0.00,
2025-03-15 10:31:22.782509,-0.16,-0.05,9.90,-0.03,0.01,-0.01,
2025-03-15 10:31:22.804155,-0.17,-0.06,9.90,-0.03,0.01,-0.01,
2025-03-15 10:31:22.831817,-0.13,0.00,9.94,-0.02,0.01,-0.00,
2025-03-15 10:31:22.857475,-0.08,-0.05,9.94,-0.02,0.01,-0.00,
2025-03-15 10:31:22.884706,-0.17,-0.07,9.93,-0.03,0.01,-0.00,
2025-03-15 10:31:22.910779,-0.13,-0.04,9.91,-0.03,0.01,-0.01,
2025-03-15 10:31:22.937526,-0.11,-0.01,9.95,-0.03,0.01,-0.01,
2025-03-15 10:31:22.963783,-0.16,-0.01,9.94,-0.02,0.01,-0.01,
2025-03-15 10:31:22.990376,-0.11,0.00,9.92,-0.02,0.00,-0.00,
2025-03-15 10:31:23.017047,-0.16,-0.01,9.92,-0.03,0.00,-0.01,
2025-03-15 10:31:23.044590,-0.07,-0.02,9.89,-0.02,0.01,-0.00,
2025-03-15 10:31:23.071021,-0.14,0.02,9.92,-0.02,0.00,-0.01,
2025-03-15 10:31:23.097375,-0.08,0.01,9.96,-0.03,0.00,-0.01,
2025-03-15 10:31:23.123884,-0.09,-0.06,9.89,-0.02,0.01,-0.00,
2025-03-15 10:31:23.150277,-0.07,-0.06,9.94,-0.02,0.01,-0.01,
2025-03-15 10:31:23.183342,-0.10,-0.02,9.91,-0.03,0.01,-0.01,
2025-03-15 10:31:23.203561,-0.09,-0.11,9.93,-0.03,0.01,-0.00,
2025-03-15 10:31:23.230531,-0.17,-0.00,9.92,-0.02,-0.00,-0.01,
2025-03-15 10:31:23.257046,-0.12,-0.07,9.87,-0.03,0.01,-0.01,
2025-03-15 10:31:23.289941,-0.10,-0.00,9.94,-0.02,0.01,-0.01,
2025-03-15 10:31:23.309955,-0.13,-0.02,9.91,-0.02,0.01,-0.00,
2025-03-15 10:31:23.336626,-0.16,-0.01,9.89,-0.03,0.01,-0.00,
2025-03-15 10:31:23.364963,-0.11,-0.02,9.90,-0.03,0.01,-0.01,
2025-03-15 10:31:23.396910,-0.09,-0.09,9.93,-0.02,0.01,-0.01,
2025-03-15 10:31:23.416576,-0.13,-0.02,9.89,-0.02,0.01,-0.01,
2025-03-15 10:31:23.444232,-0.13,-0.01,9.90,-0.03,0.01,-0.00,
2025-03-15 10:31:23.469833,-0.15,-0.01,9.91,-0.03,0.00,-0.01,
2025-03-15 10:31:23.498666,-0.11,-0.03,9.94,-0.02,0.01,-0.01,
2025-03-15 10:31:23.522978,-0.14,-0.02,9.89,-0.02,0.01,-0.01,
2025-03-15 10:31:23.552680,-0.13,-0.03,9.90,-0.02,0.01,-0.01,
2025-03-15 10:31:23.576472,-0.11,-0.07,9.88,-0.02,0.00,-0.00,
2025-03-15 10:31:23.604631,-0.11,-0.04,9.95,-0.02,0.01,-0.00,
2025-03-15 10:31:23.629505,-0.12,-0.01,9.98,-0.02,0.01,-0.01,
2025-03-15 10:31:23.657033,-0.11,-0.01,9.93,-0.03,0.00,-0.01,
2025-03-15 10:31:23.684069,-0.04,-0.07,9.86,-0.03,0.01,-0.00,
2025-03-15 10:31:23.711640,-0.14,-0.02,9.96,-0.02,0.01,-0.01,
2025-03-15 10:31:23.739209,-0.12,-0.03,9.93,-0.03,0.01,-0.01,
2025-03-15 10:31:23.776817,-0.11,0.00,9.97,-0.03,0.01,-0.01,
2025-03-15 10:31:23.789707,-0.09,-0.00,9.91,-0.03,0.01,-0.01,
2025-03-15 10:31:23.816842,-0.11,0.01,9.91,-0.02,0.01,-0.01,
2025-03-15 10:31:23.842702,-0.13,-0.07,9.89,-0.02,0.01,-0.01,
2025-03-15 10:31:23.873119,-0.13,-0.03,9.93,-0.03,0.00,-0.01,
2025-03-15 10:31:23.895671,-0.12,-0.01,9.96,-0.03,0.01,-0.00,
2025-03-15 10:31:23.922509,-0.13,-0.09,9.91,-0.02,0.01,-0.01,
2025-03-15 10:31:23.949012,-0.13,-0.11,9.89,-0.03,0.00,-0.01,
2025-03-15 10:31:23.975807,-0.10,-0.01,9.90,-0.02,0.01,-0.01,
2025-03-15 10:31:24.003798,-0.11,0.00,9.90,-0.03,0.01,-0.01,
2025-03-15 10:31:24.028796,-0.13,-0.01,9.91,-0.03,0.00,-0.00,
2025-03-15 10:31:24.055470,-0.14,-0.01,9.96,-0.02,0.01,-0.01,
2025-03-15 10:31:24.083676,-0.10,-0.00,9.90,-0.03,0.01,-0.00,
2025-03-15 10:31:24.108397,-0.07,0.01,9.91,-0.03,0.01,-0.01,
2025-03-15 10:31:24.135036,-0.14,0.01,9.95,-0.02,0.01,-0.00,
2025-03-15 10:31:24.162815,-0.11,-0.06,9.93,-0.03,0.01,-0.01,
2025-03-15 10:31:24.188420,-0.08,-0.04,9.97,-0.02,0.01,-0.01,
2025-03-15 10:31:24.216461,-0.11,-0.05,9.91,-0.03,0.01,-0.01,
2025-03-15 10:31:24.241624,-0.13,-0.01,9.92,-0.02,0.00,-0.01,
2025-03-15 10:31:24.268252,-0.08,-0.05,9.93,-0.03,0.01,-0.01,
2025-03-15 10:31:24.294808,-0.05,-0.01,9.93,-0.03,0.01,-0.01,
2025-03-15 10:31:24.321380,-0.12,-0.07,9.88,-0.03,0.01,-0.01,
2025-03-15 10:31:24.348147,-0.16,-0.06,9.96,-0.02,0.01,-0.01,
2025-03-15 10:31:24.376154,-0.11,-0.04,9.94,-0.02,0.01,-0.01,
2025-03-15 10:31:24.402933,-0.10,-0.00,9.99,-0.02,0.01,-0.01,
2025-03-15 10:31:24.427713,-0.09,0.02,9.86,-0.03,0.01,-0.01,
2025-03-15 10:31:24.454216,-0.11,-0.03,9.90,-0.02,0.01,-0.01,
2025-03-15 10:31:24.481043,-0.14,-0.09,9.90,-0.02,0.01,-0.01,
2025-03-15 10:31:24.508023,-0.10,-0.01,9.90,-0.03,0.01,-0.01,
2025-03-15 10:31:24.535533,-0.07,-0.09,9.94,-0.02,0.01,-0.01,
2025-03-15 10:31:24.560667,-0.11,-0.03,9.91,-0.03,0.01,-0.01,
2025-03-15 10:31:24.587586,-0.10,0.02,9.93,-0.03,0.01,-0.01,
2025-03-15 10:31:24.617200,-0.08,-0.04,9.92,-0.03,0.01,-0.00,
2025-03-15 10:31:24.640303,-0.14,-0.05,9.91,-0.02,0.00,-0.00,
2025-03-15 10:31:24.667077,-0.11,-0.06,9.94,-0.03,0.01,-0.01,
2025-03-15 10:31:24.694783,-0.12,0.01,9.93,-0.03,0.01,-0.01,
2025-03-15 10:31:24.720498,-0.09,-0.05,9.92,-0.03,0.01,-0.01,
2025-03-15 10:31:24.746951,-0.08,0.00,9.92,-0.02,0.01,-0.01,
2025-03-15 10:31:24.775431,-0.11,-0.02,9.94,-0.03,0.01,-0.01,
2025-03-15 10:31:24.800477,-0.13,-0.03,9.91,-0.02,0.01,-0.00,
2025-03-15 10:31:24.829644,-0.14,-0.05,9.93,-0.02,0.01,-0.01,
2025-03-15 10:31:24.853313,-0.17,-0.06,9.89,-0.03,0.01,-0.00,
2025-03-15 10:31:24.880095,-0.14,0.02,9.92,-0.03,0.01,-0.01,
2025-03-15 10:31:24.906841,-0.12,-0.02,9.99,-0.02,0.01,-0.00,
2025-03-15 10:31:24.933429,-0.10,-0.04,9.93,-0.02,0.00,-0.01,
2025-03-15 10:31:24.959971,-0.07,-0.04,9.95,-0.03,0.01,-0.01,
2025-03-15 10:31:24.986825,-0.13,-0.01,9.94,-0.03,0.00,-0.00,
2025-03-15 10:31:25.013242,-0.15,-0.04,9.93,-0.03,0.01,-0.01,
2025-03-15 10:31:25.040795,-0.11,-0.03,9.96,-0.02,0.01,-0.01,
2025-03-15 10:31:25.066660,-0.16,-0.01,9.89,-0.02,0.01,-0.01,
2025-03-15 10:31:25.096391,-0.11,-0.03,9.94,-0.02,0.01,-0.00,
2025-03-15 10:31:25.120547,-0.14,-0.07,9.93,-0.03,0.01,-0.00,
2025-03-15 10:31:25.146765,-0.10,-0.08,9.91,-0.02,0.01,-0.01,
2025-03-15 10:31:25.173299,-0.11,-0.02,9.97,-0.02,0.00,-0.01,
2025-03-15 10:31:25.200482,-0.06,-0.01,9.92,-0.02,0.01,-0.01,
2025-03-15 10:31:25.226697,-0.10,0.03,9.93,-0.02,0.01,-0.01,
2025-03-15 10:31:25.253365,-0.07,-0.04,9.95,-0.02,0.01,-0.01,
2025-03-15 10:31:25.280210,-0.13,0.00,9.93,-0.02,0.01,-0.01,
2025-03-15 10:31:25.306725,-0.12,-0.01,9.99,-0.02,0.01,-0.00,
2025-03-15 10:31:25.336195,-0.09,-0.02,9.94,-0.02,0.01,-0.00,
2025-03-15 10:31:25.360238,-0.11,-0.02,9.94,-0.02,0.01,-0.01,
2025-03-15 10:31:25.386434,-0.11,-0.02,9.94,-0.03,0.01,-0.01,
2025-03-15 10:31:25.415998,-0.11,-0.02,9.88,-0.03,0.01,-0.00,
2025-03-15 10:31:25.439500,-0.11,-0.01,9.88,-0.02,0.00,-0.00,
2025-03-15 10:31:25.466238,-0.13,0.04,9.92,-0.03,0.01,-0.00,
2025-03-15 10:31:25.494179,-0.18,-0.03,9.92,-0.02,0.01,-0.01,
2025-03-15 10:31:25.519596,-0.11,0.02,9.98,-0.03,0.01,-0.01,
2025-03-15 10:31:25.546866,-0.17,0.01,9.94,-0.02,0.01,0.00,
2025-03-15 10:31:25.574108,-0.10,-0.02,9.84,-0.02,0.01,-0.01,
2025-03-15 10:31:25.599525,-0.13,-0.06,9.92,-0.02,0.01,-0.01,
2025-03-15 10:31:25.626233,-0.05,0.01,9.87,-0.03,0.01,-0.01,
2025-03-15 10:31:25.652679,-0.09,-0.01,9.89,-0.02,0.00,-0.00,
2025-03-15 10:31:25.681573,-0.02,-0.03,9.87,-0.03,0.01,-0.01,
2025-03-15 10:31:25.708172,-0.13,-0.03,9.90,-0.02,0.01,-0.01,
2025-03-15 10:31:25.735406,-0.12,-0.03,9.92,-0.02,0.01,-0.01,
2025-03-15 10:31:25.766353,-0.07,-0.02,9.94,-0.03,0.01,-0.01,
2025-03-15 10:31:25.790470,-0.12,-0.01,9.87,-0.03,0.00,-0.00,
2025-03-15 10:31:25.812518,-0.07,0.00,9.94,-0.02,0.01,-0.01,
2025-03-15 10:31:25.839030,-0.13,-0.04,9.91,-0.02,0.01,-0.01,
2025-03-15 10:31:25.865500,-0.10,-0.02,9.92,-0.02,0.01,-0.01,
2025-03-15 10:31:25.893203,-0.16,0.02,9.93,-0.02,0.01,-0.00,
2025-03-15 10:31:25.918913,-0.20,-0.00,9.98,-0.02,0.01,-0.01,
2025-03-15 10:31:25.948565,-0.07,0.00,9.91,-0.03,0.01,-0.00,
2025-03-15 10:31:25.983291,-0.06,0.01,9.96,-0.03,0.01,-0.00,
2025-03-15 10:31:25.998248,-0.12,0.03,9.93,-0.02,0.01,-0.01,
2025-03-15 10:31:26.026009,-0.10,-0.01,9.92,-0.03,0.01,-0.00,
2025-03-15 10:31:26.053481,-0.12,-0.04,9.91,-0.03,0.01,-0.00,
2025-03-15 10:31:26.087974,-0.11,-0.01,9.94,-0.02,0.01,-0.01,
2025-03-15 10:31:26.106833,-0.13,-0.01,9.88,-0.02,0.01,-0.01,
2025-03-15 10:31:26.131719,-0.11,0.01,9.94,-0.02,0.01,-0.00,
2025-03-15 10:31:26.157761,-0.11,0.00,9.89,-0.03,0.00,-0.00,
2025-03-15 10:31:26.186861,-0.10,-0.03,9.90,-0.03,0.00,-0.01,
2025-03-15 10:31:26.211220,-0.15,-0.02,9.88,-0.03,0.01,-0.01,
2025-03-15 10:31:26.237620,-0.06,-0.01,9.99,-0.02,0.01,-0.01,
2025-03-15 10:31:26.264002,-0.12,-0.01,9.89,-0.02,0.01,-0.01,
2025-03-15 10:31:26.293511,-0.10,-0.01,9.85,-0.03,0.01,-0.01,
2025-03-15 10:31:26.317317,-0.14,0.04,9.88,-0.03,0.01,-0.01,
2025-03-15 10:31:26.344645,-0.07,0.03,9.86,-0.03,0.01,-0.01,
2025-03-15 10:31:26.402469,-0.12,0.04,9.96,-0.02,0.01,-0.01,
2025-03-15 10:31:26.410308,-0.13,-0.05,9.95,-0.02,0.00,-0.01,
2025-03-15 10:31:26.422844,-0.15,-0.01,9.95,-0.02,0.01,-0.01,
2025-03-15 10:31:26.451031,-0.08,-0.04,9.91,-0.03,0.01,-0.01,
2025-03-15 10:31:26.478100,-0.07,-0.02,9.92,-0.03,0.00,-0.01,
2025-03-15 10:31:26.503233,-0.12,-0.01,9.91,-0.03,0.01,-0.00,
2025-03-15 10:31:26.530308,-0.11,0.00,9.93,-0.02,0.00,-0.01,
2025-03-15 10:31:26.556457,-0.18,0.00,9.96,-0.02,0.01,-0.01,
2025-03-15 10:31:26.588842,-0.12,0.01,9.93,-0.02,0.01,-0.01,
2025-03-15 10:31:26.609263,-0.09,0.01,9.94,-0.03,0.00,-0.00,
2025-03-15 10:31:26.638402,-0.10,-0.01,9.88,-0.02,0.01,-0.01,
2025-03-15 10:31:26.671332,-0.14,-0.02,9.91,-0.02,0.01,-0.00,
2025-03-15 10:31:26.689020,-0.14,-0.01,9.96,-0.03,0.01,-0.01,
2025-03-15 10:31:26.715641,-0.13,-0.07,9.92,-0.03,0.01,-0.01,
2025-03-15 10:31:26.745913,-0.10,-0.01,9.90,-0.02,0.01,-0.01,
2025-03-15 10:31:26.768897,-0.10,-0.05,9.94,-0.03,0.00,-0.00,
2025-03-15 10:31:26.795338,-0.16,0.01,9.94,-0.02,0.01,-0.01,
2025-03-15 10:31:26.822118,-0.10,-0.05,9.95,-0.02,0.01,-0.01,
2025-03-15 10:31:26.848190,-0.15,0.00,9.87,-0.03,0.01,-0.01,
2025-03-15 10:31:26.890410,-0.10,-0.01,9.91,-0.02,0.00,-0.00,
2025-03-15 10:31:26.904165,-0.08,-0.03,9.95,-0.02,0.00,-0.01,
2025-03-15 10:31:26.928757,-0.15,-0.01,9.91,-0.02,0.01,-0.01,
2025-03-15 10:31:26.954616,-0.11,-0.03,9.93,-0.03,0.01,-0.00,
2025-03-15 10:31:26.985923,-0.15,0.02,9.92,-0.03,0.01,-0.01,
2025-03-15 10:31:27.007768,-0.09,-0.04,9.93,-0.02,0.01,-0.01,
2025-03-15 10:31:27.034711,-0.14,-0.02,9.95,-0.02,0.01,-0.01,
2025-03-15 10:31:27.062666,-0.14,-0.02,9.91,-0.03,0.01,-0.00,
2025-03-15 10:31:27.088389,-0.10,-0.06,9.88,-0.02,0.01,0.00,
2025-03-15 10:31:27.124293,-0.16,-0.00,9.92,-0.02,0.01,-0.01,
2025-03-15 10:31:27.140930,-0.10,0.03,9.90,-0.03,0.01,-0.01,
2025-03-15 10:31:27.181624,-0.11,-0.01,9.93,-0.03,0.01,-0.00,
2025-03-15 10:31:27.193883,-0.12,-0.04,9.93,-0.02,0.00,-0.01,
2025-03-15 10:31:27.220951,-0.13,-0.02,9.96,-0.02,0.01,-0.01,
2025-03-15 10:31:27.247305,-0.13,0.02,9.93,-0.02,0.00,-0.00,
2025-03-15 10:31:27.279458,-0.11,-0.02,9.90,-0.02,0.01,-0.01,
2025-03-15 10:31:27.300078,-0.14,0.01,9.90,-0.03,0.01,-0.01,
2025-03-15 10:31:27.326696,-0.14,-0.03,9.94,-0.03,0.01,-0.01,
2025-03-15 10:31:27.353671,-0.13,-0.06,9.91,-0.02,0.01,-0.01,
2025-03-15 10:31:27.399190,-0.16,-0.06,9.96,-0.02,0.01,-0.01,
2025-03-15 10:31:27.408236,-0.17,0.02,9.95,-0.03,0.01,-0.01,
2025-03-15 10:31:27.433033,-0.11,-0.03,9.90,-0.02,0.01,-0.01,
2025-03-15 10:31:27.460448,-0.15,-0.04,9.93,-0.03,0.01,-0.01,
2025-03-15 10:31:27.486244,-0.12,-0.02,9.98,-0.03,0.01,-0.01,
2025-03-15 10:31:27.512670,-0.13,-0.03,9.96,-0.02,0.01,-0.01,
2025-03-15 10:31:27.540631,-0.11,-0.02,9.98,-0.03,0.01,-0.01,
2025-03-15 10:31:27.565954,-0.11,-0.01,9.96,-0.02,0.01,-0.01,
2025-03-15 10:31:27.598421,-0.14,-0.02,9.92,-0.02,0.01,-0.00,
2025-03-15 10:31:27.619085,-0.09,-0.02,9.96,-0.03,0.01,-0.01,
2025-03-15 10:31:27.645826,-0.20,-0.02,9.87,-0.03,0.00,-0.01,
2025-03-15 10:31:27.672480,-0.11,0.01,9.95,-0.02,0.01,-0.00,
2025-03-15 10:31:27.700453,-0.14,-0.11,9.94,-0.02,0.01,-0.01,
2025-03-15 10:31:27.725526,-0.03,-0.07,9.86,-0.03,0.01,-0.01,
2025-03-15 10:31:27.752357,-0.17,-0.02,9.88,-0.03,0.01,-0.01,
2025-03-15 10:31:27.780643,-0.15,0.01,9.94,-0.02,0.00,-0.01,
2025-03-15 10:31:27.805396,-0.16,-0.02,9.94,-0.03,0.01,-0.00,
2025-03-15 10:31:27.832023,-0.07,-0.02,9.92,-0.03,0.01,0.00,
2025-03-15 10:31:27.858554,-0.09,-0.03,9.99,-0.02,0.01,-0.00,
2025-03-15 10:31:27.886210,-2.50,-6.92,9.46,0.00,-0.04,-0.32,
2025-03-15 10:31:27.911989,-0.48,-1.13,9.59,-0.02,0.02,-0.68,
2025-03-15 10:31:27.938740,-0.73,-2.88,8.73,-0.01,0.03,-0.94,
2025-03-15 10:31:27.965421,-0.42,-2.02,9.42,-0.01,0.02,-1.01,
2025-03-15 10:31:27.992106,-0.10,-0.63,10.22,-0.02,-0.01,-1.24,
2025-03-15 10:31:28.018560,-0.53,-0.45,9.27,-0.07,-0.06,-1.39,
2025-03-15 10:31:28.048207,-0.54,1.45,10.30,-0.02,0.02,-1.19,
2025-03-15 10:31:28.072017,0.20,1.36,10.50,-0.15,-0.02,-1.14,
2025-03-15 10:31:28.099329,0.23,2.45,9.60,-0.02,0.03,-0.90,
2025-03-15 10:31:28.125317,0.06,1.53,9.84,0.03,0.00,-0.74,
2025-03-15 10:31:28.154685,0.02,0.37,9.80,-0.03,-0.03,-0.63,
2025-03-15 10:31:28.179690,0.14,1.06,8.61,-0.06,-0.01,-0.39,
2025-03-15 10:31:28.205067,-0.08,1.17,9.90,0.03,0.01,-0.20,
2025-03-15 10:31:28.231932,-0.23,-0.42,10.42,-0.02,-0.02,-0.26,
2025-03-15 10:31:28.259465,-0.21,-0.24,9.96,-0.02,-0.02,-0.27,
2025-03-15 10:31:28.285138,0.07,-0.06,9.73,-0.04,-0.01,-0.25,
2025-03-15 10:31:28.311620,-0.09,-0.01,9.91,-0.02,0.01,-0.35,
2025-03-15 10:31:28.338283,-0.02,0.84,9.64,-0.03,-0.03,-0.25,
2025-03-15 10:31:28.365164,-0.19,0.31,10.07,-0.03,-0.01,-0.16,
2025-03-15 10:31:28.391636,-0.17,-0.62,9.87,-0.05,0.01,-0.20,
2025-03-15 10:31:28.418372,-0.11,0.26,9.72,-0.03,0.03,-0.27,
2025-03-15 10:31:28.445243,-0.18,0.66,10.06,-0.02,0.01,-0.23,
2025-03-15 10:31:28.471995,-0.04,-0.07,9.93,-0.02,0.01,0.02,
2025-03-15 10:31:28.498694,-0.12,-0.57,10.02,-0.00,0.04,-0.06,
2025-03-15 10:31:28.525078,-0.04,-0.10,9.31,0.01,0.04,-0.16,
2025-03-15 10:31:28.551715,0.23,0.95,9.74,-0.03,-0.01,-0.23,
2025-03-15 10:31:28.578727,-0.00,1.01,9.82,-0.02,0.00,-0.12,
2025-03-15 10:31:28.604932,-0.15,0.15,9.90,-0.03,0.00,-0.01,
2025-03-15 10:31:28.631451,-0.12,-0.03,9.91,-0.03,0.01,-0.01,
2025-03-15 10:31:28.658106,-0.12,-0.03,9.92,-0.03,0.01,-0.01,
2025-03-15 10:31:28.684947,-0.17,-0.01,9.96,-0.03,0.00,-0.01,
2025-03-15 10:31:28.713762,-0.13,-0.08,9.92,-0.02,0.01,-0.01,
2025-03-15 10:31:28.738021,-0.14,0.00,9.93,-0.02,0.01,-0.01,
2025-03-15 10:31:28.764422,-0.18,-0.04,9.94,-0.02,0.00,-0.01,
2025-03-15 10:31:28.794182,-0.08,0.00,9.95,-0.02,0.00,-0.01,
2025-03-15 10:31:28.817718,-0.03,-0.06,9.96,-0.03,0.00,-0.05,
2025-03-15 10:31:28.843870,-0.11,0.01,9.88,-0.03,0.01,-0.01,
2025-03-15 10:31:28.871426,-0.15,0.02,9.92,-0.03,0.01,-0.01,
2025-03-15 10:31:28.897206,-0.08,0.03,9.96,-0.02,0.01,-0.01,
2025-03-15 10:31:28.936471,-0.10,-0.04,9.96,-0.03,0.01,-0.01,
2025-03-15 10:31:28.950053,-0.15,0.00,9.91,-0.03,0.00,-0.01,
2025-03-15 10:31:28.977011,-0.13,-0.02,9.93,-0.02,0.00,-0.00,
2025-03-15 10:31:29.003524,-0.14,0.01,9.94,-0.03,0.01,-0.01,
2025-03-15 10:31:29.033092,-0.15,-0.05,9.90,-0.02,0.01,-0.00,
2025-03-15 10:31:29.057590,-0.10,-0.01,9.95,-0.02,0.01,-0.01,
2025-03-15 10:31:29.084412,-0.08,-0.01,9.93,-0.02,0.01,-0.01,
2025-03-15 10:31:29.110550,-0.14,-0.07,9.90,-0.02,0.01,-0.01,
2025-03-15 10:31:29.137539,-0.13,-0.00,9.91,-0.02,0.01,-0.01,
2025-03-15 10:31:29.163888,-0.10,-0.00,9.90,-0.02,0.01,-0.01,
2025-03-15 10:31:29.190915,-0.06,0.00,9.86,-0.02,0.01,-0.01,
2025-03-15 10:31:29.217154,-0.11,0.01,9.96,-0.02,0.01,-0.01,
2025-03-15 10:31:29.243557,-0.11,0.00,9.94,-0.02,0.00,-0.01,
2025-03-15 10:31:29.270104,-0.08,0.03,9.95,-0.03,0.01,-0.01,
2025-03-15 10:31:29.299853,-0.11,-0.04,9.96,-0.03,0.01,-0.01,
2025-03-15 10:31:29.323480,-0.11,0.01,9.89,-0.02,0.01,-0.01,
2025-03-15 10:31:29.349955,-0.13,-0.02,9.89,-0.02,0.01,-0.01,
2025-03-15 10:31:29.376854,-0.10,-0.03,9.96,-0.02,0.01,-0.01,
2025-03-15 10:31:29.403505,-0.15,-0.04,9.92,-0.02,0.00,-0.00,
2025-03-15 10:31:29.430961,-0.17,0.01,9.90,-0.03,0.00,-0.01,
2025-03-15 10:31:29.457765,-0.11,-0.01,9.93,-0.03,0.00,-0.00,
2025-03-15 10:31:29.488118,-0.09,-0.02,9.94,-0.02,0.01,-0.01,
2025-03-15 10:31:29.510756,-0.18,0.00,9.91,-0.02,0.01,-0.01,
2025-03-15 10:31:29.544815,-0.17,0.02,9.91,-0.02,0.00,-0.01,
2025-03-15 10:31:29.564287,-0.11,-0.01,9.91,-0.03,0.01,-0.00,
2025-03-15 10:31:29.606525,-0.11,-0.01,9.89,-0.03,0.00,-0.02,
2025-03-15 10:31:29.625937,-0.11,0.00,9.93,-0.02,0.01,-0.01,
2025-03-15 10:31:29.643499,-0.11,-0.02,9.91,-0.02,0.01,-0.01,
2025-03-15 10:31:29.671584,-0.14,-0.02,9.90,-0.02,0.01,-0.01,
2025-03-15 10:31:29.701569,-0.09,-0.01,9.97,-0.02,0.01,-0.01,
2025-03-15 10:31:29.724065,-0.19,-0.03,9.92,-0.03,0.01,-0.02,
2025-03-15 10:31:29.752104,-0.13,0.02,9.91,-0.02,0.01,-0.01,
2025-03-15 10:31:29.777078,-0.08,0.01,9.93,-0.02,0.00,-0.01,
2025-03-15 10:31:29.808110,-0.06,0.00,9.88,-0.02,0.00,-0.01,
2025-03-15 10:31:29.831039,-0.13,-0.01,9.94,-0.03,0.01,-0.01,
2025-03-15 10:31:29.859470,-0.10,-0.01,9.95,-0.03,0.00,-0.00,
2025-03-15 10:31:29.883499,-0.15,-0.07,9.90,-0.02,0.01,-0.01,
2025-03-15 10:31:29.910303,-0.10,0.01,9.92,-0.03,0.01,-0.01,
2025-03-15 10:31:29.937149,-0.18,-0.00,9.92,-0.02,0.00,-0.00,
2025-03-15 10:31:29.968910,-0.14,-0.04,9.94,-0.03,0.01,-0.00,
2025-03-15 10:31:29.989816,-0.06,0.01,9.93,-0.03,0.01,-0.01,
2025-03-15 10:31:30.022941,-0.11,-0.01,9.95,-0.03,0.01,-0.01,
2025-03-15 10:31:30.043165,-0.08,-0.04,9.91,-0.02,0.01,-0.01,
2025-03-15 10:31:30.072463,-0.10,0.00,9.91,-0.02,0.01,-0.01,
2025-03-15 10:31:30.096269,-0.11,-0.04,9.91,-0.03,0.01,-0.01,
2025-03-15 10:31:30.127213,-0.13,0.01,9.93,-0.02,0.01,-0.01,
2025-03-15 10:31:30.154908,-0.06,0.00,9.95,-0.02,0.01,-0.00,
2025-03-15 10:31:30.180579,-0.09,-0.02,9.89,-0.02,0.01,-0.01,
2025-03-15 10:31:30.202971,-0.10,-0.01,9.95,-0.02,0.01,-0.01,
2025-03-15 10:31:30.229290,-0.10,-0.03,9.97,-0.03,0.01,-0.00,
2025-03-15 10:31:30.257939,-0.11,-0.02,9.95,-0.02,0.01,-0.01,
2025-03-15 10:31:30.282649,-0.14,0.01,9.95,-0.02,0.01,-0.01,
2025-03-15 10:31:30.309370,-0.10,0.01,9.93,-0.03,0.00,-0.01,
2025-03-15 10:31:30.336498,-0.11,-0.02,9.87,-0.03,0.01,-0.00,
2025-03-15 10:31:30.363249,-0.16,0.00,9.92,-0.03,0.00,-0.01,
2025-03-15 10:31:30.389146,-0.17,-0.07,9.94,-0.03,0.01,-0.01,
2025-03-15 10:31:30.417609,-0.09,-0.01,9.91,-0.03,0.01,-0.01,
2025-03-15 10:31:30.444578,-0.06,-0.06,9.90,-0.02,0.01,-0.00,
2025-03-15 10:31:30.469873,-0.08,-0.01,9.93,-0.02,0.01,-0.01,
2025-03-15 10:31:30.497818,-0.16,0.02,9.88,-0.03,0.01,-0.00,
2025-03-15 10:31:30.523945,-0.16,-0.01,9.91,-0.03,0.01,-0.00,
2025-03-15 10:31:30.556319,-0.08,0.03,9.89,-0.03,0.01,-0.01,
2025-03-15 10:31:30.575357,-0.08,-0.12,9.99,-0.03,0.01,-0.01,
2025-03-15 10:31:30.601898,-0.10,0.02,9.96,-0.03,0.01,-0.00,
2025-03-15 10:31:30.628731,-0.10,0.03,9.96,-0.02,0.01,-0.01,
2025-03-15 10:31:30.655026,-0.13,-0.05,9.96,-0.02,0.01,-0.01,
2025-03-15 10:31:30.683792,-0.18,0.01,9.93,-0.03,0.01,-0.01,
2025-03-15 10:31:30.714845,-0.13,-0.03,9.93,-0.02,0.01,-0.01,
2025-03-15 10:31:30.740186,-0.13,0.01,9.92,-0.02,0.00,-0.01,
2025-03-15 10:31:30.764683,-0.14,-0.02,9.94,-0.02,0.01,-0.01,
2025-03-15 10:31:30.794933,-0.07,-0.02,9.93,-0.02,0.00,-0.00,
2025-03-15 10:31:30.817204,-0.11,-0.01,9.96,-0.03,0.01,-0.01,
2025-03-15 10:31:30.842781,-0.10,-0.04,9.92,-0.03,0.01,-0.01,
2025-03-15 10:31:30.870619,0.05,-0.20,10.06,-0.01,0.01,0.01,
2025-03-15 10:31:30.894977,-0.50,0.36,9.72,0.00,0.03,-0.20,
2025-03-15 10:31:30.921850,0.05,-0.08,9.89,-0.00,0.02,-0.34,
2025-03-15 10:31:30.948633,-0.76,0.15,9.94,-0.06,-0.01,-0.39,
2025-03-15 10:31:30.974768,-0.25,0.07,9.84,-0.00,0.02,-0.46,
2025-03-15 10:31:31.002275,-0.41,0.16,9.67,0.03,0.02,-0.43,
2025-03-15 10:31:31.035369,-0.42,-0.03,9.90,-0.02,0.01,-0.55,
2025-03-15 10:31:31.054383,-0.27,-0.02,9.74,-0.04,-0.01,-0.79,
2025-03-15 10:31:31.081855,-0.11,0.59,10.27,-0.04,-0.01,-0.82,
2025-03-15 10:31:31.109515,-0.75,0.93,9.91,-0.03,0.01,-0.73,
2025-03-15 10:31:31.134857,-1.25,1.28,10.83,-0.13,-0.02,-0.73,
2025-03-15 10:31:31.161107,1.62,0.27,9.45,-0.02,0.02,1.26,
2025-03-15 10:31:31.191815,-0.60,0.98,9.10,-0.01,0.00,0.92,
2025-03-15 10:31:31.214316,0.07,0.67,9.59,-0.04,0.00,0.90,
2025-03-15 10:31:31.243342,-0.41,1.70,9.72,-0.10,0.05,1.38,
2025-03-15 10:31:31.268202,0.34,0.02,9.14,-0.04,0.01,1.69,
2025-03-15 10:31:31.293965,0.02,0.07,8.90,-0.10,0.01,1.77,
2025-03-15 10:31:31.320809,0.11,-1.18,10.18,-0.05,-0.01,1.64,
2025-03-15 10:31:31.347850,0.02,0.47,9.63,-0.11,0.02,1.44,
2025-03-15 10:31:31.376695,-0.22,-1.51,10.69,-0.12,0.04,1.26,
2025-03-15 10:31:31.403229,-0.74,-0.16,11.76,-0.05,0.00,1.16,
2025-03-15 10:31:31.431131,0.35,-2.60,8.68,0.04,0.01,1.03,
2025-03-15 10:31:31.453995,-0.84,-0.50,10.18,0.03,0.04,1.00,
2025-03-15 10:31:31.480472,-0.23,0.61,9.85,-0.02,0.01,0.90,
2025-03-15 10:31:31.508068,-0.41,-1.06,10.41,-0.02,-0.00,0.82,
2025-03-15 10:31:31.533900,-0.09,-0.62,10.61,-0.06,0.01,0.77,
2025-03-15 10:31:31.562635,-0.02,-1.41,7.94,-0.04,-0.02,0.69,
2025-03-15 10:31:31.625373,0.05,-0.47,10.17,-0.10,-0.02,0.52,
2025-03-15 10:31:31.636965,-0.31,-0.87,9.72,0.07,0.02,0.45,
2025-03-15 10:31:31.642172,0.08,0.05,8.84,-0.02,-0.02,0.47,
2025-03-15 10:31:31.666778,-0.39,0.45,9.91,-0.04,-0.00,0.55,
2025-03-15 10:31:31.696272,-0.32,0.62,11.03,-0.04,-0.00,0.63,
2025-03-15 10:31:31.722697,0.23,0.02,8.60,0.06,0.02,0.68,
2025-03-15 10:31:31.749412,-0.15,-0.92,9.43,-0.05,0.01,0.65,
2025-03-15 10:31:31.774633,-0.19,-0.06,10.13,-0.11,-0.06,0.50,
2025-03-15 10:31:31.800402,-0.45,0.13,10.30,0.04,-0.02,0.43,
2025-03-15 10:31:31.831526,-0.20,0.13,9.56,-0.01,0.02,0.45,
2025-03-15 10:31:31.857567,0.01,-0.54,9.45,0.01,0.02,0.46,
2025-03-15 10:31:31.879996,-0.26,-1.27,10.50,-0.07,0.03,0.39,
2025-03-15 10:31:31.921246,0.06,0.05,8.27,-0.01,-0.02,0.46,
2025-03-15 10:31:31.945967,-0.32,-0.20,10.18,-0.01,0.02,0.47,
2025-03-15 10:31:31.959254,0.23,-0.25,9.16,-0.05,-0.03,0.40,
2025-03-15 10:31:32.002751,-0.36,-0.44,10.40,-0.03,-0.02,0.42,
2025-03-15 10:31:32.016399,-0.21,0.03,11.46,-0.02,-0.01,0.45,
2025-03-15 10:31:32.048624,-0.24,-0.45,9.35,-0.01,-0.01,0.45,
2025-03-15 10:31:32.070304,-0.11,-0.77,10.29,-0.04,-0.00,0.30,
2025-03-15 10:31:32.096616,0.21,-0.44,9.55,-0.01,-0.01,0.17,
2025-03-15 10:31:32.120812,-0.25,-1.23,10.17,-0.02,-0.00,-0.02,
2025-03-15 10:31:32.148033,-0.36,-0.10,9.93,-0.02,0.01,-0.04,
2025-03-15 10:31:32.174292,-0.30,0.17,9.88,-0.02,0.00,-0.02,
2025-03-15 10:31:32.207463,-0.08,-0.11,9.97,-0.02,0.00,-0.01,
2025-03-15 10:31:32.227301,-0.05,-0.15,9.95,-0.03,0.01,-0.02,
2025-03-15 10:31:32.254551,0.12,-0.01,10.03,-0.02,0.00,-0.01,
2025-03-15 10:31:32.281322,-0.02,-0.16,9.86,-0.00,0.01,0.10,
2025-03-15 10:31:32.308348,0.18,-0.47,9.98,-0.04,-0.00,-0.07,
2025-03-15 10:31:32.334259,0.14,-0.45,9.91,-0.03,0.01,0.07,
2025-03-15 10:31:32.363255,0.13,-0.48,9.93,-0.04,-0.01,-0.01,
2025-03-15 10:31:32.392576,-0.14,-1.10,10.09,-0.04,0.00,-0.16,
2025-03-15 10:31:32.414117,-0.02,0.36,10.20,-0.02,0.01,-0.24,
2025-03-15 10:31:32.440803,-0.47,-0.44,10.36,0.00,0.00,-0.31,
2025-03-15 10:31:32.469571,-0.33,0.51,10.64,-0.03,0.01,-0.45,
2025-03-15 10:31:32.514675,-0.38,-0.48,9.56,-0.02,0.01,-0.41,
2025-03-15 10:31:32.527398,-0.39,-0.77,10.10,-0.00,-0.00,-0.37,
2025-03-15 10:31:32.547713,-0.11,-0.71,10.26,-0.06,0.01,-0.55,
2025-03-15 10:31:32.574578,-0.10,-0.23,9.82,-0.05,0.00,-0.74,
2025-03-15 10:31:32.600331,-0.32,-1.33,8.56,-0.02,0.04,-0.82,
2025-03-15 10:31:32.629434,-0.15,0.17,9.77,-0.00,-0.01,-0.79,
2025-03-15 10:31:32.653660,0.12,0.29,10.29,-0.01,0.01,-0.74,
2025-03-15 10:31:32.691123,-0.20,1.00,10.62,-0.04,-0.00,-0.70,
2025-03-15 10:31:32.713535,0.21,0.52,9.53,-0.01,0.01,-0.60,
2025-03-15 10:31:32.735963,-0.14,0.35,10.82,0.01,0.03,-0.43,
2025-03-15 10:31:32.762487,0.27,-0.25,8.74,-0.01,0.01,-0.43,
2025-03-15 10:31:32.787720,-0.10,-0.30,9.80,-0.08,-0.03,-0.47,
2025-03-15 10:31:32.817152,-0.13,-0.68,10.00,0.02,0.02,-0.58,
2025-03-15 10:31:32.841195,-0.46,-0.73,9.41,-0.05,-0.00,-0.59,
2025-03-15 10:31:32.867445,-0.49,-0.30,10.38,0.01,0.01,-0.58,
2025-03-15 10:31:32.895963,0.03,-0.71,8.92,-0.11,-0.03,-0.60,
2025-03-15 10:31:32.920634,-0.52,1.58,11.63,0.01,0.02,-0.72,
2025-03-15 10:31:32.947647,-0.46,0.65,10.95,0.00,0.02,-0.75,
2025-03-15 10:31:32.977500,-0.02,-1.19,8.66,-0.04,-0.01,-0.91,
2025-03-15 10:31:33.000586,-0.42,-0.34,10.39,-0.09,-0.01,-0.95,
2025-03-15 10:31:33.032394,-0.47,-0.16,9.24,-0.06,-0.02,-0.92,
2025-03-15 10:31:33.053630,-0.12,-0.34,8.45,-0.03,0.01,-0.94,
2025-03-15 10:31:33.085603,-0.11,-0.25,9.29,-0.06,-0.02,-1.01,
2025-03-15 10:31:33.107897,-0.68,0.50,10.64,-0.03,-0.01,-0.98,
2025-03-15 10:31:33.137300,-0.24,-0.05,10.28,-0.02,0.02,-0.94,
2025-03-15 10:31:33.161024,-0.15,0.32,10.09,-0.04,-0.00,-0.94,
2025-03-15 10:31:33.187435,-0.45,-0.42,9.73,-0.04,-0.03,-0.91,
2025-03-15 10:31:33.218863,-0.18,0.56,10.68,0.00,0.02,-0.87,
2025-03-15 10:31:33.241382,-0.09,0.61,10.64,0.00,-0.02,-0.84,
2025-03-15 10:31:33.268589,-0.72,0.42,10.91,0.01,-0.03,-0.79,
2025-03-15 10:31:33.294317,0.01,0.44,10.64,-0.00,-0.01,-0.73,
2025-03-15 10:31:33.321194,0.21,-0.55,9.85,-0.06,0.01,-0.82,
2025-03-15 10:31:33.348904,-0.29,-0.13,10.40,0.02,0.01,-0.80,
2025-03-15 10:31:33.376726,0.09,0.04,9.54,0.01,0.02,-0.79,
2025-03-15 10:31:33.402481,-0.28,0.19,10.41,0.01,0.01,-0.72,
2025-03-15 10:31:33.427138,-0.30,0.78,10.74,0.01,-0.00,-0.63,
2025-03-15 10:31:33.458991,-0.31,0.00,10.21,0.01,0.00,-0.65,
2025-03-15 10:31:33.483139,-0.43,0.78,11.00,-0.02,-0.01,-0.71,
2025-03-15 10:31:33.588241,-0.17,0.76,9.62,-0.09,0.00,-0.57,
2025-03-15 10:31:33.613353,-0.12,1.41,11.08,-0.03,-0.03,-0.51,
2025-03-15 10:31:33.646950,-1.40,7.20,8.23,-0.14,-0.05,0.03,
2025-03-15 10:31:33.669880,-0.25,0.13,9.91,-0.02,0.01,-0.03,
2025-03-15 10:31:33.695059,-0.17,0.02,9.93,-0.02,0.01,-0.05,
2025-03-15 10:31:33.719511,-0.11,-0.03,9.95,-0.04,-0.00,-0.08,
2025-03-15 10:31:33.746521,-0.04,0.30,9.97,-0.02,0.01,-0.10,
2025-03-15 10:31:33.780479,-0.46,0.51,9.81,-0.01,0.01,0.05,
2025-03-15 10:31:33.804432,0.07,0.88,9.84,-0.06,-0.01,0.24,
2025-03-15 10:31:33.826598,0.03,1.20,9.68,-0.01,0.00,0.51,
2025-03-15 10:31:33.854229,-0.06,1.55,10.03,-0.04,0.00,0.78,
2025-03-15 10:31:33.880111,-0.51,0.87,10.58,-0.06,0.02,1.16,
2025-03-15 10:31:33.906823,0.29,0.03,9.15,-0.07,0.01,1.36,
2025-03-15 10:31:33.938204,-0.13,-0.14,9.74,-0.00,0.02,1.35,
2025-03-15 10:31:33.960122,-0.22,-0.59,10.03,-0.03,0.03,1.29,
2025-03-15 10:31:33.988309,-0.38,-0.18,9.28,-0.06,0.01,1.25,
2025-03-15 10:31:34.016764,-0.29,-1.25,10.43,-0.07,0.00,1.03,
2025-03-15 10:31:34.040208,-0.47,-1.05,11.15,-0.04,0.02,0.97,
2025-03-15 10:31:34.067383,-0.30,0.17,8.71,-0.10,0.01,1.00,
2025-03-15 10:31:34.095418,-0.14,0.41,9.28,-0.07,-0.01,1.02,
2025-03-15 10:31:34.120354,-0.75,0.68,10.29,-0.04,0.01,1.07,
2025-03-15 10:31:34.148283,-0.33,0.23,10.86,0.03,0.03,1.13,
2025-03-15 10:31:34.174740,-0.52,-1.77,10.97,-0.02,0.03,1.14,
2025-03-15 10:31:34.201278,-0.14,-1.12,10.10,0.01,-0.01,1.05,
2025-03-15 10:31:34.227545,-0.11,-0.02,10.12,-0.08,0.02,1.01,
2025-03-15 10:31:34.254803,-0.33,-0.26,9.92,-0.03,0.01,0.95,
2025-03-15 10:31:34.280639,-0.48,-0.58,9.95,-0.05,-0.00,1.02,
2025-03-15 10:31:34.309815,-0.08,-0.10,9.43,-0.05,0.04,1.07,
2025-03-15 10:31:34.334047,0.04,-0.98,9.86,0.06,0.02,1.04,
2025-03-15 10:31:34.360479,-0.13,-0.04,9.76,-0.02,0.01,0.94,
2025-03-15 10:31:34.387125,-0.29,-0.61,9.99,0.00,0.01,0.93,
2025-03-15 10:31:34.413902,-0.03,0.11,10.15,-0.10,-0.01,0.91,
2025-03-15 10:31:34.440595,-0.12,-1.54,10.02,-0.12,0.03,0.83,
2025-03-15 10:31:34.467287,-0.19,-0.89,10.09,-0.05,0.00,0.79,
2025-03-15 10:31:34.493739,0.06,0.06,9.93,-0.03,0.00,0.89,
2025-03-15 10:31:34.520529,-0.09,-0.50,9.95,-0.04,0.02,0.92,
2025-03-15 10:31:34.558999,-0.09,-0.49,9.73,-0.03,-0.01,0.80,
2025-03-15 10:31:34.579418,-0.35,-0.19,9.87,-0.05,0.01,0.70,
2025-03-15 10:31:34.606098,-0.19,-0.87,9.89,-0.04,-0.01,0.60,
2025-03-15 10:31:34.633206,-0.10,-0.52,9.84,-0.05,0.04,0.41,
2025-03-15 10:31:34.655688,-0.01,-0.59,9.97,-0.02,0.01,0.25,
2025-03-15 10:31:34.680117,-0.13,-0.37,9.94,-0.02,-0.00,0.11,
2025-03-15 10:31:34.710389,0.34,-0.55,9.88,-0.03,0.01,0.04,
2025-03-15 10:31:34.735830,-0.15,-0.71,9.91,-0.02,-0.01,-0.18,
2025-03-15 10:31:34.763041,-0.30,-0.85,11.16,-0.01,0.00,-0.59,
2025-03-15 10:31:34.796938,-0.35,-0.12,9.58,-0.00,0.02,-0.59,
2025-03-15 10:31:34.828296,-0.29,0.69,9.77,-0.02,-0.00,-0.49,
2025-03-15 10:31:34.845908,0.68,-0.41,9.84,-0.00,0.02,0.06,
2025-03-15 10:31:34.876645,-0.09,0.18,9.97,-0.02,0.01,-0.06,
2025-03-15 10:31:34.894968,-0.08,-0.05,9.96,-0.03,0.00,-0.00,
2025-03-15 10:31:34.920731,-0.01,-0.81,9.92,-0.01,0.01,-0.17,
2025-03-15 10:31:34.948207,0.12,-0.40,9.96,-0.03,-0.00,-0.29,
2025-03-15 10:31:34.991660,-0.44,-1.51,9.57,-0.03,0.01,-0.46,
2025-03-15 10:31:35.005445,-0.56,-0.57,10.91,-0.03,-0.03,-0.55,
2025-03-15 10:31:35.031483,-0.58,-2.70,9.90,0.05,0.02,-0.89,
2025-03-15 10:31:35.054141,-0.57,-1.30,10.55,0.01,-0.01,-1.22,
2025-03-15 10:31:35.079614,-0.53,-1.96,9.01,-0.05,-0.01,-1.80,
2025-03-15 10:31:35.106510,-0.57,-1.44,9.58,-0.11,-0.04,-2.18,
2025-03-15 10:31:35.133212,-0.76,-0.23,10.06,-0.07,-0.03,-2.38,
2025-03-15 10:31:35.159778,-0.60,0.08,10.84,-0.01,-0.02,-2.38,
2025-03-15 10:31:35.195587,-0.52,0.30,9.88,-0.02,-0.01,-2.27,
2025-03-15 10:31:35.213112,-0.60,1.18,9.63,0.01,0.01,-2.02,
2025-03-15 10:31:35.245230,-0.99,1.00,10.43,-0.04,-0.03,-1.51,
2025-03-15 10:31:35.266732,-0.29,0.51,10.22,-0.03,-0.03,-1.50,
2025-03-15 10:31:35.293441,0.06,-0.32,9.95,-0.05,-0.01,-1.58,
2025-03-15 10:31:35.322695,-0.11,0.26,8.77,-0.01,0.01,-1.41,
2025-03-15 10:31:35.347535,-0.54,0.97,10.98,-0.03,-0.00,-1.18,
2025-03-15 10:31:35.416351,-0.20,-0.70,9.25,-0.04,-0.01,-1.28,
2025-03-15 10:31:35.453001,-0.27,0.39,10.01,-0.01,0.02,-1.37,
2025-03-15 10:31:35.479928,0.08,0.78,9.04,-0.04,0.01,-1.24,
2025-03-15 10:31:35.507648,0.22,2.14,9.17,-0.08,-0.04,-0.79,
2025-03-15 10:31:35.533080,-0.00,3.94,9.76,-0.01,0.01,-0.18,
2025-03-15 10:31:35.559339,-0.02,0.59,9.96,-0.02,0.01,0.32,
2025-03-15 10:31:35.594672,0.11,0.64,10.09,-0.00,0.02,0.69,
2025-03-15 10:31:35.612816,-0.24,3.02,9.69,-0.00,0.04,1.07,
2025-03-15 10:31:35.640919,-0.39,3.36,10.71,-0.09,-0.04,1.67,
2025-03-15 10:31:35.667843,-1.00,3.19,10.85,-0.08,-0.02,2.35,
2025-03-15 10:31:35.693126,-0.81,2.87,10.75,0.01,0.04,3.10,
2025-03-15 10:31:35.719690,-1.83,1.31,10.12,-0.03,0.05,3.76,
2025-03-15 10:31:35.746437,-1.60,-0.04,9.45,-0.11,0.03,4.02,
2025-03-15 10:31:35.774328,-0.99,-3.19,8.51,-0.05,0.03,3.78,
2025-03-15 10:31:35.804140,-1.36,-4.31,11.68,-0.06,-0.01,2.91,
2025-03-15 10:31:35.826375,-0.96,-5.05,10.72,-0.04,-0.00,1.62,
2025-03-15 10:31:35.853257,-1.59,-6.88,9.75,-0.02,0.01,0.00,
2025-03-15 10:31:35.888903,-0.60,-2.82,10.13,0.01,-0.01,-0.75,
2025-03-15 10:31:35.911442,-0.72,-5.50,10.62,-0.08,-0.01,-1.62,
2025-03-15 10:31:35.938656,-1.22,-5.12,10.01,-0.03,-0.02,-3.30,
2025-03-15 10:31:35.962553,-2.31,-3.58,10.05,-0.04,-0.02,-4.61,
2025-03-15 10:31:35.997137,-2.72,-1.74,10.00,-0.00,-0.03,-5.15,
2025-03-15 10:31:36.013397,-2.59,3.51,9.55,-0.01,-0.03,-4.58,
2025-03-15 10:31:36.050629,-1.47,6.68,9.93,-0.04,-0.02,-3.60,
2025-03-15 10:31:36.067293,0.51,13.53,10.64,-0.07,-0.04,-0.98,
2025-03-15 10:31:36.094132,-0.51,9.03,10.42,-0.02,0.02,1.83,
2025-03-15 10:31:36.124117,-1.45,6.96,9.73,-0.05,0.03,4.21,
2025-03-15 10:31:36.147960,-2.34,4.75,10.32,-0.03,0.05,5.53,
2025-03-15 10:31:36.174211,-2.42,2.03,10.12,-0.05,0.06,5.93,
2025-03-15 10:31:36.210809,-3.06,-7.06,9.29,0.01,0.07,5.16,
2025-03-15 10:31:36.229313,-2.14,-12.16,9.32,0.02,0.06,2.48,
2025-03-15 10:31:36.254832,-0.90,-8.83,10.48,0.52,0.00,-0.96,
2025-03-15 10:31:36.281806,-0.96,-7.99,10.86,1.15,-0.12,-2.44,
2025-03-15 10:31:36.307770,-1.76,-0.80,9.00,0.77,-0.33,-4.06,
2025-03-15 10:31:36.336415,-2.58,-0.72,8.24,-1.50,-0.05,-4.37,
2025-03-15 10:31:36.361980,1.82,11.61,9.69,-0.37,-0.18,-2.50,
2025-03-15 10:31:36.388240,0.26,9.18,9.89,0.02,0.02,0.55,
2025-03-15 10:31:36.414385,-1.53,3.75,10.62,-0.05,-0.03,2.25,
2025-03-15 10:31:36.441377,-1.53,1.98,10.30,-0.02,0.05,3.88,
2025-03-15 10:31:36.478291,-0.70,-5.20,10.82,-0.07,0.01,2.47,
2025-03-15 10:31:36.496312,-0.49,-9.54,10.02,0.00,-0.03,-0.18,
2025-03-15 10:31:36.521174,-0.49,-5.25,9.39,0.00,0.00,-1.15,
2025-03-15 10:31:36.547831,-1.73,-3.04,11.01,0.06,0.03,-2.24,
2025-03-15 10:31:36.577189,-0.92,-0.72,10.18,0.10,0.01,-2.63,
2025-03-15 10:31:36.640211,-0.73,2.16,9.41,-0.10,-0.03,-2.60,
2025-03-15 10:31:36.644328,0.67,6.68,10.75,-0.07,-0.00,-1.41,
2025-03-15 10:31:36.656793,0.03,7.38,9.26,-0.11,-0.01,0.13,
2025-03-15 10:31:36.680733,0.25,6.19,9.94,-0.05,0.01,1.94,
2025-03-15 10:31:36.708289,-1.42,3.97,9.07,-0.06,-0.02,3.47,
2025-03-15 10:31:36.734141,-1.64,0.77,9.44,0.02,0.03,4.22,
2025-03-15 10:31:36.761215,-1.36,-1.61,10.09,0.00,0.04,3.73,
2025-03-15 10:31:36.787380,-1.70,-8.99,9.46,-0.08,-0.01,2.04,
2025-03-15 10:31:36.814202,-1.87,-10.74,10.50,0.04,0.03,-0.51,
2025-03-15 10:31:36.845305,-1.58,-6.09,8.61,0.07,0.00,-1.75,
2025-03-15 10:31:36.867843,-1.38,-4.31,11.22,0.10,0.03,-2.96,
2025-03-15 10:31:36.894093,-1.53,-1.63,9.45,0.33,-0.05,-3.50,
2025-03-15 10:31:36.922668,-1.71,-0.26,9.17,0.08,-0.07,-3.75,
2025-03-15 10:31:36.948919,-0.51,5.34,8.21,0.02,-0.09,-3.03,
2025-03-15 10:31:36.974444,0.55,10.41,10.36,-0.60,-0.05,-1.16,
2025-03-15 10:31:37.000682,0.51,7.72,9.74,-0.04,-0.02,0.40,
2025-03-15 10:31:37.027382,0.24,8.48,9.87,-0.08,0.00,2.42,
2025-03-15 10:31:37.055588,-0.61,5.75,10.35,0.01,0.02,4.02,
2025-03-15 10:31:37.080950,-1.20,0.05,8.73,-0.04,0.03,4.60,
2025-03-15 10:31:37.114364,-1.91,-2.84,10.71,-0.00,0.04,3.67,
2025-03-15 10:31:37.134299,-3.19,-10.36,10.51,0.02,0.04,2.59,
2025-03-15 10:31:37.160934,-0.63,-10.79,9.96,0.03,0.01,-0.19,
2025-03-15 10:31:37.188464,-2.18,-5.23,10.11,0.05,-0.01,-1.36,
2025-03-15 10:31:37.216090,-1.03,-4.66,8.99,0.02,-0.03,-2.34,
2025-03-15 10:31:37.241026,-1.94,-1.48,10.41,0.03,-0.02,-2.99,
2025-03-15 10:31:37.267965,-1.00,0.37,10.01,-0.10,-0.03,-3.30,
2025-03-15 10:31:37.294407,0.61,5.86,9.06,0.00,-0.01,-2.59,
2025-03-15 10:31:37.322075,1.32,8.03,8.48,-0.07,-0.03,-1.27,
2025-03-15 10:31:37.347568,0.50,6.55,9.97,-0.04,0.02,0.38,
2025-03-15 10:31:37.374359,0.45,6.18,10.54,-0.00,0.02,1.38,
2025-03-15 10:31:37.401027,0.83,5.18,10.08,-0.06,-0.00,2.26,
2025-03-15 10:31:37.432596,-1.36,2.89,8.94,-0.00,0.05,3.22,
2025-03-15 10:31:37.454167,-2.17,-1.22,9.15,0.02,0.05,3.72,
2025-03-15 10:31:37.483285,-3.80,-7.99,9.76,0.01,0.02,3.06,
2025-03-15 10:31:37.508659,-2.35,-10.45,9.69,-0.07,0.03,1.58,
2025-03-15 10:31:37.536138,-1.23,-7.37,9.53,-0.05,0.00,-0.57,
2025-03-15 10:31:37.560760,-2.04,-6.42,9.73,0.01,-0.02,-2.06,
2025-03-15 10:31:37.590458,-1.37,-3.62,9.61,0.05,0.00,-3.08,
2025-03-15 10:31:37.614108,-1.34,-2.31,10.09,0.03,-0.01,-3.76,
2025-03-15 10:31:37.640836,-1.11,1.05,9.14,0.03,-0.05,-4.21,
2025-03-15 10:31:37.667827,-1.00,2.44,10.11,-0.05,-0.04,-4.24,
2025-03-15 10:31:37.694515,-0.89,5.90,10.43,-0.12,-0.04,-3.53,
2025-03-15 10:31:37.733439,0.79,11.51,10.06,-0.12,-0.03,-1.52,
2025-03-15 10:31:37.751834,0.84,7.91,10.35,-0.02,0.00,-0.24,
2025-03-15 10:31:37.787865,0.28,9.55,10.52,-0.03,0.04,1.61,
2025-03-15 10:31:37.805185,-0.92,8.71,9.44,-0.04,0.04,3.60,
2025-03-15 10:31:37.827692,-3.65,3.47,9.73,-0.04,0.05,5.12,
2025-03-15 10:31:37.854414,-4.23,0.55,10.59,-0.03,0.04,5.96,
2025-03-15 10:31:37.882527,-6.23,-5.37,10.56,0.02,0.08,6.44,
2025-03-15 10:31:37.908190,-6.21,-11.18,10.36,0.01,-0.02,4.85,
2025-03-15 10:31:37.946869,-2.18,-12.72,7.95,0.02,-0.10,1.50,
2025-03-15 10:31:37.961615,-2.11,-11.72,11.45,0.00,0.07,-1.46,
2025-03-15 10:31:37.988397,-3.63,-8.78,9.74,-0.01,-0.01,-2.98,
2025-03-15 10:31:38.014659,-3.24,-3.32,10.98,0.03,-0.02,-4.69,
2025-03-15 10:31:38.049720,-2.20,-1.73,10.15,0.07,-0.03,-5.50,
2025-03-15 10:31:38.068568,-3.32,2.45,10.28,0.15,0.01,-4.98,
2025-03-15 10:31:38.097779,-2.85,2.49,9.48,0.16,0.01,-5.51,
2025-03-15 10:31:38.122880,-1.99,6.78,10.68,-0.13,-0.12,-4.76,
2025-03-15 10:31:38.148505,-0.47,9.55,10.35,-0.26,-0.13,-3.36,
2025-03-15 10:31:38.178107,-0.35,8.42,9.88,-0.02,0.00,-0.49,
2025-03-15 10:31:38.201938,0.15,6.37,9.69,-0.06,-0.01,1.06,
2025-03-15 10:31:38.228433,-0.61,5.43,9.54,-0.07,0.01,1.94,
2025-03-15 10:31:38.255262,-1.24,4.87,10.22,-0.04,0.04,3.11,
2025-03-15 10:31:38.281098,-2.41,2.30,9.67,-0.07,0.05,4.16,
2025-03-15 10:31:38.308555,-3.29,1.73,9.74,0.00,0.04,5.18,
2025-03-15 10:31:38.347509,-3.64,-0.64,9.79,-0.05,0.04,5.46,
2025-03-15 10:31:38.362000,-2.94,-5.92,10.03,-0.05,0.04,4.96,
2025-03-15 10:31:38.388633,-2.12,-8.07,10.20,0.00,0.06,3.35,
2025-03-15 10:31:38.416536,-0.87,-8.48,9.43,0.02,0.02,0.99,
2025-03-15 10:31:38.441454,-1.58,-6.56,9.46,-0.07,-0.01,-0.70,
2025-03-15 10:31:38.470416,-1.34,-5.06,9.60,-0.02,0.01,-1.73,
2025-03-15 10:31:38.497076,-1.92,-4.05,9.88,-0.01,-0.01,-2.71,
2025-03-15 10:31:38.522039,-1.26,-1.66,9.68,-0.02,-0.02,-3.59,
2025-03-15 10:31:38.552040,-1.54,0.24,10.64,0.01,-0.03,-4.08,
2025-03-15 10:31:38.575372,-1.11,2.42,9.40,0.03,-0.02,-3.99,
2025-03-15 10:31:38.602399,-0.87,3.33,9.44,-0.03,-0.04,-3.73,
2025-03-15 10:31:38.628777,-0.27,4.48,9.27,-0.04,-0.04,-2.94,
2025-03-15 10:31:38.657400,0.00,6.79,10.36,-0.06,-0.02,-1.47,
2025-03-15 10:31:38.687774,0.49,7.24,9.90,-0.04,0.00,-0.20,
2025-03-15 10:31:38.708797,0.07,3.48,9.17,-0.02,0.02,0.56,
2025-03-15 10:31:38.736030,-0.44,3.84,9.60,-0.03,0.01,1.12,
2025-03-15 10:31:38.768433,-0.17,2.76,9.03,-0.04,0.00,1.53,
2025-03-15 10:31:38.788435,-0.77,3.67,9.14,-0.02,0.05,2.54,
2025-03-15 10:31:38.815378,-1.16,0.84,9.29,0.02,0.04,3.16,
2025-03-15 10:31:38.841600,-1.24,-0.49,9.84,-0.01,0.02,3.19,
2025-03-15 10:31:38.880048,-1.11,-2.36,10.44,-0.03,0.01,2.91,
2025-03-15 10:31:38.912127,-1.01,-3.38,10.26,-0.05,0.01,2.41,
2025-03-15 10:31:38.921414,-1.02,-3.82,9.89,-0.02,0.00,1.49,
2025-03-15 10:31:38.947974,-0.42,-5.04,10.08,-0.00,0.01,0.72,
2025-03-15 10:31:38.978474,0.25,-1.68,9.99,-0.02,0.00,-0.21,
2025-03-15 10:31:39.003112,-1.10,-1.29,9.65,-0.03,0.01,0.19,
2025-03-15 10:31:39.028241,-1.65,-2.54,10.19,-0.05,-0.01,-0.18,
2025-03-15 10:31:39.055806,0.11,-2.72,10.08,-0.05,-0.00,-1.25,
2025-03-15 10:31:39.083481,-0.67,-3.54,10.57,-0.01,-0.01,-2.05,
2025-03-15 10:31:39.111191,-1.25,-2.66,10.11,-0.01,-0.01,-2.99,
2025-03-15 10:31:39.136687,-2.14,-2.62,10.41,-0.00,0.00,-3.84,
2025-03-15 10:31:39.162053,-2.26,0.03,10.00,0.03,-0.01,-3.98,
2025-03-15 10:31:39.188778,-1.94,1.16,10.27,0.01,-0.01,-3.61,
2025-03-15 10:31:39.215604,-1.40,2.31,9.74,0.02,0.01,-3.18,
2025-03-15 10:31:39.241965,-0.58,3.94,10.07,0.04,0.03,-2.44,
2025-03-15 10:31:39.268612,0.06,3.81,9.35,-0.01,-0.02,-1.59,
2025-03-15 10:31:39.295335,0.41,5.07,10.18,-0.09,-0.01,-0.62,
2025-03-15 10:31:39.324419,0.46,5.18,9.84,-0.07,-0.02,0.04,
2025-03-15 10:31:39.350763,0.17,1.37,10.06,-0.07,-0.03,0.16,
2025-03-15 10:31:39.375561,0.03,2.15,10.02,-0.03,0.02,0.59,
2025-03-15 10:31:39.403121,-0.53,3.57,10.41,-0.04,0.01,1.02,
2025-03-15 10:31:39.429023,-0.07,4.53,9.90,-0.03,0.01,2.07,
2025-03-15 10:31:39.460216,-1.08,2.94,9.81,0.04,0.04,2.78,
2025-03-15 10:31:39.482975,-1.19,1.78,9.33,0.01,0.03,3.54,
2025-03-15 10:31:39.508666,-1.02,0.68,10.25,0.00,0.04,3.50,
2025-03-15 10:31:39.536975,-0.93,-0.57,9.36,-0.02,0.05,3.25,
2025-03-15 10:31:39.567382,-1.22,-0.72,9.96,-0.04,0.03,3.15,
2025-03-15 10:31:39.591410,-1.42,-2.38,10.52,-0.05,0.01,2.78,
2025-03-15 10:31:39.615438,-1.34,-3.52,10.88,-0.07,-0.00,2.07,
2025-03-15 10:31:39.642136,0.42,-3.16,9.56,-0.02,0.01,0.83,
2025-03-15 10:31:39.670348,-0.48,-2.45,9.45,-0.07,0.01,0.21,
2025-03-15 10:31:39.698909,-0.86,-0.08,9.08,0.00,0.03,0.30,
2025-03-15 10:31:39.726369,-0.66,-0.13,10.19,-0.04,0.01,0.65,
2025-03-15 10:31:39.753140,0.11,-1.31,9.90,-0.02,0.01,0.60,
2025-03-15 10:31:39.775185,-0.01,-1.53,10.00,-0.04,0.00,0.22,
2025-03-15 10:31:39.810685,0.01,-1.31,9.92,-0.02,0.00,-0.12,
2025-03-15 10:31:39.830045,-0.22,0.07,9.97,-0.04,0.01,-0.30,
2025-03-15 10:31:39.854802,-0.42,0.10,10.12,-0.01,0.01,-0.19,
2025-03-15 10:31:39.891582,-0.28,0.22,9.85,-0.02,0.01,-0.11,
2025-03-15 10:31:39.914632,-0.24,0.42,9.91,-0.03,0.00,0.09,
2025-03-15 10:31:39.935411,0.15,-0.05,9.99,-0.01,0.01,0.18,
2025-03-15 10:31:39.960941,-0.05,-0.59,10.07,-0.02,0.01,0.08,
2025-03-15 10:31:39.989713,-0.11,-0.13,9.93,-0.03,0.00,-0.01,
2025-03-15 10:31:40.014634,-0.10,-0.07,9.88,-0.02,0.01,0.00,
2025-03-15 10:31:40.043655,-0.07,-0.05,9.97,-0.02,0.01,0.00,
2025-03-15 10:31:40.068216,-0.12,-0.09,9.94,-0.02,0.01,-0.00,
2025-03-15 10:31:40.094141,-0.10,-0.04,9.86,-0.02,0.01,-0.01,
2025-03-15 10:31:40.121048,-0.16,-0.09,9.99,-0.02,0.01,-0.09,
2025-03-15 10:31:40.147376,-0.12,0.11,9.92,-0.03,0.01,-0.00,
2025-03-15 10:31:40.173775,-0.08,-0.07,9.95,-0.03,0.00,0.04,
2025-03-15 10:31:40.204439,-0.11,-0.11,9.90,-0.02,0.01,0.02,
2025-03-15 10:31:40.227291,-0.14,-0.05,9.90,-0.02,0.01,0.04,
2025-03-15 10:31:40.253970,-0.08,0.00,9.94,-0.03,0.01,0.05,
2025-03-15 10:31:40.284869,-0.11,-0.16,9.91,-0.02,0.01,0.05,
2025-03-15 10:31:40.310707,-0.11,0.01,9.92,-0.03,0.00,0.00,
2025-03-15 10:31:40.333887,-0.09,-0.10,9.92,-0.03,0.00,-0.01,
2025-03-15 10:31:40.360460,-0.19,-0.07,9.94,-0.02,0.01,0.01,
2025-03-15 10:31:40.386945,-0.09,-0.10,9.93,-0.02,0.02,0.02,
2025-03-15 10:31:40.413583,-0.11,0.02,9.99,-0.02,0.00,0.04,
2025-03-15 10:31:40.442347,-0.13,-0.03,9.96,-0.03,0.00,0.01,
2025-03-15 10:31:40.467174,-0.10,0.00,9.90,-0.03,0.00,-0.01,
2025-03-15 10:31:40.493572,-0.08,-0.02,9.91,-0.03,0.00,-0.01,
2025-03-15 10:31:40.520010,-0.08,-0.04,9.91,-0.02,0.01,0.00,
2025-03-15 10:31:40.546834,-0.12,-0.12,9.93,-0.03,0.00,-0.00,
2025-03-15 10:31:40.574381,-0.07,-0.02,9.92,-0.03,0.01,-0.01,
2025-03-15 10:31:40.602856,-0.12,-0.05,9.93,-0.03,0.00,-0.01,
2025-03-15 10:31:40.627044,-0.12,-0.01,9.93,-0.02,0.01,-0.01,
2025-03-15 10:31:40.653959,-0.14,0.02,9.96,-0.03,0.01,-0.01,
2025-03-15 10:31:40.682260,-0.10,-0.03,9.92,-0.03,0.00,-0.01,
2025-03-15 10:31:40.709923,-0.13,-0.09,9.94,-0.02,0.01,-0.01,
2025-03-15 10:31:40.733460,-0.11,-0.05,9.90,-0.03,0.00,-0.00,
2025-03-15 10:31:40.760449,-0.12,-0.06,9.97,-0.03,0.01,-0.00,
2025-03-15 10:31:40.787079,-0.10,-0.06,9.91,-0.02,0.01,-0.01,
2025-03-15 10:31:40.813425,-0.13,-0.10,9.94,-0.02,0.01,-0.01,
2025-03-15 10:31:40.842700,-0.16,0.05,9.89,-0.02,0.01,-0.03,
2025-03-15 10:31:40.867065,-0.11,-0.06,9.91,-0.02,0.01,-0.02,
2025-03-15 10:31:40.893594,-0.11,-0.06,9.93,-0.03,0.01,-0.03,
2025-03-15 10:31:40.919939,-0.14,-0.00,9.94,-0.03,0.00,-0.03,
2025-03-15 10:31:40.946685,-0.10,0.00,9.95,-0.02,0.01,-0.01,
2025-03-15 10:31:40.974887,-0.14,-0.08,9.88,-0.02,0.00,-0.01,
2025-03-15 10:31:41.001069,-0.16,-0.02,9.96,-0.02,0.01,-0.00,
2025-03-15 10:31:41.026604,-0.10,-0.02,9.96,-0.03,0.01,-0.01,
2025-03-15 10:31:41.053878,-0.08,-0.02,9.92,-0.02,0.01,-0.01,
2025-03-15 10:31:41.081978,-0.08,-0.07,9.88,-0.02,0.01,-0.01,
2025-03-15 10:31:41.111629,-0.10,-0.03,9.94,-0.02,0.00,-0.00,
2025-03-15 10:31:41.133354,-0.16,-0.02,9.93,-0.03,0.01,-0.01,
2025-03-15 10:31:41.160775,-0.09,-0.06,9.92,-0.03,0.01,-0.01,
2025-03-15 10:31:41.186629,-0.12,-0.08,9.97,-0.02,0.01,-0.01,
2025-03-15 10:31:41.215225,-0.09,-0.05,9.91,-0.02,0.01,-0.02,
2025-03-15 10:31:41.239693,-0.13,-0.00,9.88,-0.02,0.01,-0.01,
2025-03-15 10:31:41.266555,-0.11,0.00,9.94,-0.02,0.01,-0.01,
2025-03-15 10:31:41.300906,-0.13,-0.12,9.92,-0.02,0.01,-0.07,
2025-03-15 10:31:41.324725,-0.07,-0.01,9.88,-0.03,0.00,-0.09,
2025-03-15 10:31:41.346076,-0.05,-0.09,9.91,-0.02,0.01,-0.17,
2025-03-15 10:31:41.375507,-0.22,0.20,9.95,-0.04,-0.01,-0.01,
2025-03-15 10:31:41.399241,-0.08,-0.05,9.91,-0.03,0.01,-0.01,
2025-03-15 10:31:41.425637,-0.11,-0.02,9.92,-0.02,0.01,-0.01,
2025-03-15 10:31:41.452667,-0.11,-0.04,9.95,-0.02,0.01,-0.01,
2025-03-15 10:31:41.481675,-0.07,-0.07,9.92,-0.02,0.00,-0.01,
2025-03-15 10:31:41.505721,-0.11,-0.04,9.94,-0.03,0.00,-0.01,
2025-03-15 10:31:41.535328,-0.17,-0.05,9.96,-0.01,0.01,0.00,
2025-03-15 10:31:41.559176,-0.09,-0.03,9.92,-0.02,0.01,-0.00,
2025-03-15 10:31:41.586758,-0.20,-0.02,9.91,-0.02,0.01,0.01,
2025-03-15 10:31:41.615561,-0.30,-0.17,9.99,-0.04,-0.00,0.12,
2025-03-15 10:31:41.638955,0.09,-0.11,9.99,-0.02,0.01,0.10,
2025-03-15 10:31:41.672417,-0.23,-0.23,9.96,-0.02,0.01,0.05,
2025-03-15 10:31:41.695384,-0.07,-0.09,9.89,-0.02,0.01,0.05,
2025-03-15 10:31:41.718983,-0.14,0.02,9.96,-0.02,0.01,0.06,
2025-03-15 10:31:41.745576,0.03,-0.05,9.96,-0.02,0.01,0.04,
2025-03-15 10:31:41.774521,-0.11,0.00,9.87,-0.02,0.01,-0.01,
2025-03-15 10:31:41.801483,-0.21,-0.16,9.95,-0.02,0.01,-0.02,
2025-03-15 10:31:41.851075,-0.23,-0.11,9.91,-0.02,0.01,-0.03,
2025-03-15 10:31:41.855162,-0.15,-0.11,9.92,-0.03,0.00,-0.05,
2025-03-15 10:31:41.879593,-0.09,-0.07,9.89,-0.02,0.01,-0.04,
2025-03-15 10:31:41.904977,-0.07,-0.01,9.94,-0.02,0.00,-0.02,
2025-03-15 10:31:41.945067,-0.10,-0.00,9.91,-0.03,0.00,-0.01,
2025-03-15 10:31:41.957870,-0.09,-0.02,9.97,-0.03,0.00,-0.00,
2025-03-15 10:31:41.985091,-0.11,-0.02,9.89,-0.03,-0.00,-0.01,
2025-03-15 10:31:42.010844,-0.10,-0.00,9.93,-0.03,0.01,-0.01,
2025-03-15 10:31:42.037534,-0.08,-0.05,9.96,-0.03,0.01,-0.01,
2025-03-15 10:31:42.064268,-0.10,-0.13,10.00,-0.03,0.01,-0.02,
2025-03-15 10:31:42.096514,-0.14,-0.04,9.88,-0.02,0.01,-0.04,
2025-03-15 10:31:42.117500,-0.16,-0.07,9.94,-0.03,0.01,-0.06,
2025-03-15 10:31:42.145379,-0.11,-0.08,9.90,-0.03,0.01,-0.11,
2025-03-15 10:31:42.171466,-0.14,-0.04,9.96,-0.02,0.00,-0.07,
2025-03-15 10:31:42.197625,-0.14,-0.06,9.91,-0.02,0.01,-0.08,
2025-03-15 10:31:42.224012,-0.14,-0.06,9.96,-0.02,0.00,-0.05,
2025-03-15 10:31:42.253229,-0.08,-0.11,9.92,-0.03,0.01,-0.07,
2025-03-15 10:31:42.277117,-0.06,-0.10,9.93,-0.02,0.01,-0.06,
2025-03-15 10:31:42.303971,-0.04,0.01,9.86,-0.02,0.00,-0.04,
2025-03-15 10:31:42.332404,-0.11,-0.04,9.92,-0.02,0.01,-0.01,
2025-03-15 10:31:42.357106,-0.11,-0.03,9.92,-0.03,0.00,-0.00,
2025-03-15 10:31:42.383697,-0.11,-0.05,9.90,-0.02,0.01,-0.00,
2025-03-15 10:31:42.411035,-0.22,-0.06,9.90,-0.03,0.01,0.06,
2025-03-15 10:31:42.437108,-0.11,-0.30,9.92,-0.06,-0.01,0.11,
2025-03-15 10:31:42.463785,-0.73,-0.51,10.39,0.02,0.04,0.12,
2025-03-15 10:31:42.493429,-1.19,-1.29,10.11,0.17,0.03,0.09,
2025-03-15 10:31:42.517220,-1.35,-3.76,12.46,1.42,-0.05,-0.79,
2025-03-15 10:31:42.545138,0.80,-5.21,8.60,1.74,-0.27,-1.72,
2025-03-15 10:31:42.572921,-0.56,1.03,10.62,1.10,-0.19,-2.90,
2025-03-15 10:31:42.597343,-1.01,2.68,10.14,1.27,-0.29,-2.82,
2025-03-15 10:31:42.624036,-0.96,5.62,8.30,0.37,0.17,-1.80,
2025-03-15 10:31:42.651829,-0.47,6.33,8.27,-0.75,0.60,-0.78,
2025-03-15 10:31:42.677304,-0.07,3.22,10.03,-1.56,1.09,0.44,
2025-03-15 10:31:42.707626,-0.56,2.05,10.61,-1.10,0.74,0.84,
2025-03-15 10:31:42.732760,-0.86,0.58,11.18,-0.58,0.37,0.90,
2025-03-15 10:31:42.758369,-1.00,-1.56,11.79,-0.35,0.07,0.48,
2025-03-15 10:31:42.784217,-1.20,-1.84,12.06,-0.47,-0.38,-0.05,
2025-03-15 10:31:42.816975,-0.76,-0.54,11.16,-1.12,-0.84,-0.51,
2025-03-15 10:31:42.837921,-0.80,-0.34,10.97,-0.44,-0.97,-0.51,
2025-03-15 10:31:42.864272,-0.60,0.06,10.11,-0.09,-1.31,-0.43,
2025-03-15 10:31:42.891542,0.36,-0.38,9.51,0.16,-1.11,-0.42,
2025-03-15 10:31:42.918144,-0.26,0.56,10.07,1.24,-1.05,-0.39,
2025-03-15 10:31:42.951145,-0.11,0.86,9.29,0.53,-1.24,-0.23,
2025-03-15 10:31:42.971112,0.85,0.41,7.35,-0.67,-0.90,-0.28,
2025-03-15 10:31:42.997835,1.26,0.17,7.53,-1.53,-0.12,-0.35,
2025-03-15 10:31:43.027550,1.24,-0.16,8.76,-1.04,0.01,-0.43,
2025-03-15 10:31:43.051201,1.11,0.93,9.96,0.64,-0.16,-0.35,
2025-03-15 10:31:43.080203,1.17,0.99,9.50,0.57,-0.14,-0.03,
2025-03-15 10:31:43.107902,1.24,0.24,9.51,0.67,0.03,0.01,
2025-03-15 10:31:43.130873,1.19,0.49,9.61,0.39,0.11,0.02,
2025-03-15 10:31:43.162734,1.18,-0.16,10.49,0.11,0.22,0.06,
2025-03-15 10:31:43.184235,0.91,-0.01,10.54,0.48,-0.04,-0.05,
2025-03-15 10:31:43.211065,1.19,0.85,9.33,0.30,-0.15,-0.05,
2025-03-15 10:31:43.237843,1.19,0.66,9.42,0.23,-0.09,0.01,
2025-03-15 10:31:43.265217,1.13,0.98,9.31,0.20,-0.09,0.00,
2025-03-15 10:31:43.291013,1.05,0.74,9.33,0.23,-0.12,0.07,
2025-03-15 10:31:43.319862,1.34,0.63,8.83,0.52,0.09,0.02,
2025-03-15 10:31:43.345834,1.11,0.90,9.65,-0.04,0.38,0.03,
2025-03-15 10:31:43.370789,1.13,0.70,10.32,0.04,0.30,-0.01,
2025-03-15 10:31:43.397746,0.99,0.93,10.48,0.12,0.13,-0.03,
2025-03-15 10:31:43.425831,0.93,0.85,10.30,0.01,0.05,-0.02,
2025-03-15 10:31:43.450833,0.98,0.83,10.05,-0.26,0.02,-0.05,
2025-03-15 10:31:43.477463,0.91,0.45,9.97,-0.21,-0.03,-0.11,
2025-03-15 10:31:43.504168,1.17,0.84,9.30,-0.09,-0.08,-0.15,
2025-03-15 10:31:43.531051,1.08,1.21,9.18,0.15,0.10,-0.13,
2025-03-15 10:31:43.560981,1.06,1.27,9.42,0.10,0.15,0.01,
2025-03-15 10:31:43.585628,1.02,1.08,9.36,0.14,0.16,0.02,
2025-03-15 10:31:43.610617,0.99,1.18,9.34,0.09,0.24,0.02,
2025-03-15 10:31:43.642446,0.85,1.00,9.87,-0.13,0.28,0.00,
2025-03-15 10:31:43.663912,0.76,1.03,9.96,-0.03,0.16,-0.01,
2025-03-15 10:31:43.690689,0.84,1.20,9.90,-0.07,0.12,0.04,
2025-03-15 10:31:43.719512,0.70,1.18,9.88,0.03,0.08,0.10,
2025-03-15 10:31:43.744396,0.73,0.83,9.61,-0.13,0.10,0.13,
2025-03-15 10:31:43.770507,0.62,0.49,9.87,-0.00,0.14,0.05,
2025-03-15 10:31:43.797083,0.52,0.88,9.95,0.20,0.14,-0.04,
2025-03-15 10:31:43.823174,0.72,0.96,9.94,0.22,0.14,-0.01,
2025-03-15 10:31:43.852072,0.58,1.17,9.78,0.22,0.06,-0.03,
2025-03-15 10:31:43.876307,0.54,1.08,9.62,0.03,0.10,-0.02,
2025-03-15 10:31:43.903519,0.56,1.04,9.69,0.25,0.22,-0.03,
2025-03-15 10:31:43.931228,0.50,1.39,10.07,0.27,0.14,-0.03,
2025-03-15 10:31:43.957849,0.45,1.47,10.03,0.22,0.09,-0.00,
2025-03-15 10:31:43.983722,0.43,1.53,9.74,0.50,0.11,0.05,
2025-03-15 10:31:44.010479,0.44,1.59,9.62,0.55,0.12,0.04,
2025-03-15 10:31:44.037476,0.22,1.85,9.43,0.26,0.20,0.07,
2025-03-15 10:31:44.064138,0.38,1.70,9.48,0.13,0.25,0.06,
2025-03-15 10:31:44.090420,0.05,1.65,9.71,0.02,0.25,0.01,
2025-03-15 10:31:44.117155,0.21,1.45,9.59,-0.22,0.24,-0.05,
2025-03-15 10:31:44.144590,0.14,1.40,9.73,-0.14,0.23,-0.11,
2025-03-15 10:31:44.170532,-0.10,1.43,9.74,-0.04,0.22,-0.15,
2025-03-15 10:31:44.203036,0.00,1.41,9.67,0.30,0.22,-0.16,
2025-03-15 10:31:44.223756,-0.01,2.08,9.78,0.31,0.20,-0.18,
2025-03-15 10:31:44.250558,-0.04,2.32,9.81,0.25,0.15,-0.05,
2025-03-15 10:31:44.277743,-0.06,2.11,10.02,0.31,0.11,0.07,
2025-03-15 10:31:44.304028,0.02,1.89,10.06,-0.29,0.02,-0.02,
2025-03-15 10:31:44.330466,-0.14,1.63,9.74,-0.29,0.00,-0.08,
2025-03-15 10:31:44.358634,-0.21,1.86,9.73,-0.06,0.03,-0.07,
2025-03-15 10:31:44.388000,-0.22,2.18,9.96,0.01,0.04,-0.04,
2025-03-15 10:31:44.410495,-0.10,2.00,10.00,-0.25,0.00,0.00,
2025-03-15 10:31:44.438102,-0.30,1.68,9.86,-0.09,-0.09,0.03,
2025-03-15 10:31:44.463903,-0.02,1.65,9.51,-0.00,-0.09,0.01,
2025-03-15 10:31:44.489899,-0.24,1.53,9.68,-0.18,0.04,-0.00,
2025-03-15 10:31:44.517172,-0.11,1.57,9.86,-0.07,0.01,-0.05,
2025-03-15 10:31:44.548788,-0.09,1.92,9.69,-0.12,-0.02,-0.03,
2025-03-15 10:31:44.575245,-0.06,1.81,9.84,0.11,0.03,0.03,
2025-03-15 10:31:44.596972,-0.13,1.79,9.93,-0.01,0.00,0.04,
2025-03-15 10:31:44.623917,-0.06,1.58,9.73,-0.19,-0.07,-0.03,
2025-03-15 10:31:44.651080,-0.06,1.72,9.70,-0.13,-0.04,-0.02,
2025-03-15 10:31:44.677791,-0.16,1.66,9.61,-0.22,-0.01,0.01,
2025-03-15 10:31:44.704425,-0.03,1.62,9.71,-0.13,0.04,0.02,
2025-03-15 10:31:44.730171,-0.11,1.65,9.98,-0.06,0.02,0.06,
2025-03-15 10:31:44.757734,-0.10,1.35,10.06,-0.29,-0.03,0.06,
2025-03-15 10:31:44.790388,-0.14,1.50,9.94,-0.09,-0.08,-0.03,
2025-03-15 10:31:44.810890,-0.10,1.70,9.64,-0.14,-0.06,0.02,
2025-03-15 10:31:44.837435,-0.17,1.56,9.73,-0.07,-0.04,0.07,
2025-03-15 10:31:44.863962,-0.05,1.31,9.71,0.04,-0.03,0.00,
2025-03-15 10:31:44.892022,0.02,1.40,9.61,-0.16,0.00,-0.02,
2025-03-15 10:31:44.921165,-0.05,1.43,9.99,-0.19,0.01,-0.02,
2025-03-15 10:31:44.943667,-0.08,1.50,9.95,-0.23,-0.04,-0.02,
2025-03-15 10:31:44.973128,-0.02,1.24,9.85,-0.32,-0.05,0.02,
2025-03-15 10:31:44.997359,0.00,1.26,9.83,-0.25,-0.10,-0.00,
2025-03-15 10:31:45.026516,0.03,1.12,9.62,-0.27,-0.04,0.02,
2025-03-15 10:31:45.050455,-0.00,0.94,9.73,-0.07,-0.01,-0.00,
2025-03-15 10:31:45.077286,0.04,1.13,9.80,-0.06,-0.01,-0.01,
2025-03-15 10:31:45.105028,0.10,0.95,9.89,-0.13,-0.01,0.00,
2025-03-15 10:31:45.130310,0.13,1.02,9.95,-0.12,-0.02,-0.01,
2025-03-15 10:31:45.157010,0.03,1.07,9.94,-0.34,-0.03,-0.00,
2025-03-15 10:31:45.194626,0.08,0.94,9.92,-0.24,-0.01,0.00,
2025-03-15 10:31:45.220594,0.08,0.75,10.02,-0.29,-0.01,0.01,
2025-03-15 10:31:45.236553,0.10,0.65,9.99,-0.31,-0.04,-0.05,
2025-03-15 10:31:45.265658,0.11,0.98,9.82,-0.06,-0.06,-0.07,
2025-03-15 10:31:45.290749,0.10,1.14,9.72,0.03,-0.03,0.04,
2025-03-15 10:31:45.316428,0.13,0.71,9.65,-0.10,0.01,0.06,
2025-03-15 10:31:45.342908,0.09,0.72,9.74,0.19,0.04,0.05,
2025-03-15 10:31:45.370050,0.05,0.78,9.81,-0.10,0.03,0.03,
2025-03-15 10:31:45.396842,0.11,0.50,9.83,-0.20,0.06,-0.00,
2025-03-15 10:31:45.426869,0.00,0.51,10.12,0.01,0.04,-0.04,
2025-03-15 10:31:45.449548,0.01,0.81,10.00,-0.09,-0.02,-0.02,
2025-03-15 10:31:45.477726,-0.05,0.69,9.93,-0.02,-0.03,0.01,
2025-03-15 10:31:45.506649,0.08,0.63,9.84,0.06,0.01,-0.03,
2025-03-15 10:31:45.529639,0.15,0.78,9.86,0.00,-0.01,-0.04,
2025-03-15 10:31:45.556854,0.12,0.94,9.77,0.01,-0.01,-0.00,
2025-03-15 10:31:45.587875,0.17,0.93,9.75,0.06,0.06,0.02,
2025-03-15 10:31:45.610748,-0.04,0.83,10.00,0.04,0.05,0.04,
2025-03-15 10:31:45.636432,0.14,0.75,9.84,-0.01,0.04,0.06,
2025-03-15 10:31:45.668054,0.02,0.68,9.94,0.02,0.04,0.05,
2025-03-15 10:31:45.689898,0.11,0.69,9.95,0.08,0.01,-0.02,
2025-03-15 10:31:45.719407,0.13,0.91,9.85,-0.04,0.00,-0.02,
2025-03-15 10:31:45.743013,0.06,0.89,9.84,-0.20,0.06,0.04,
2025-03-15 10:31:45.770141,-0.00,0.50,10.02,-0.01,0.01,-0.04,
2025-03-15 10:31:45.796922,0.04,0.84,9.98,-0.02,0.01,-0.08,
2025-03-15 10:31:45.822861,0.06,0.93,9.98,-0.11,0.02,-0.05,
2025-03-15 10:31:45.849335,0.06,1.09,9.97,-0.02,-0.04,0.03,
2025-03-15 10:31:45.876206,0.03,0.89,9.77,-0.05,-0.03,0.07,
2025-03-15 10:31:45.904418,0.04,0.50,9.64,-0.01,0.01,0.02,
2025-03-15 10:31:45.929286,0.04,0.65,9.82,0.07,0.06,-0.04,
2025-03-15 10:31:45.956261,0.02,0.93,10.01,-0.16,0.03,-0.03,
2025-03-15 10:31:45.983001,-0.00,0.82,10.02,-0.04,-0.02,0.01,
2025-03-15 10:31:46.010275,0.03,0.86,9.87,0.04,0.00,0.04,
2025-03-15 10:31:46.035941,0.06,0.59,9.83,0.01,0.02,0.01,
2025-03-15 10:31:46.063499,0.13,0.78,9.74,-0.14,0.02,-0.05,
2025-03-15 10:31:46.089191,0.17,0.82,9.58,-0.12,0.03,-0.02,
2025-03-15 10:31:46.115737,0.04,0.90,9.24,-0.06,0.06,0.01,
2025-03-15 10:31:46.142317,0.13,0.89,8.93,-0.03,0.10,0.02,
2025-03-15 10:31:46.168813,0.05,1.02,8.79,0.16,0.16,0.06,
2025-03-15 10:31:46.195500,0.01,0.92,8.55,0.10,0.29,0.10,
2025-03-15 10:31:46.235792,-0.03,0.76,8.59,0.09,0.39,0.07,
2025-03-15 10:31:46.248729,-0.15,0.93,8.65,0.12,0.49,0.01,
2025-03-15 10:31:46.275294,-0.36,1.45,8.96,0.19,0.76,0.03,
2025-03-15 10:31:46.303155,-0.59,1.66,9.72,-0.05,1.14,0.19,
2025-03-15 10:31:46.328576,-1.67,1.13,12.90,0.04,1.30,0.37,
2025-03-15 10:31:46.355336,-2.00,0.51,14.41,0.46,0.95,0.39,
2025-03-15 10:31:46.383181,-3.09,0.37,15.94,0.76,0.48,0.38,
2025-03-15 10:31:46.408867,-3.27,0.25,15.81,0.55,-0.18,0.34,
2025-03-15 10:31:46.437034,-3.47,0.66,15.42,0.22,-1.09,0.07,
2025-03-15 10:31:46.462392,-2.80,0.90,14.57,0.06,-2.00,-0.13,
2025-03-15 10:31:46.489510,-1.38,1.90,10.87,-0.25,-2.66,-0.27,
2025-03-15 10:31:46.516498,-1.21,2.11,8.83,-0.38,-2.78,-0.28,
2025-03-15 10:31:46.542966,0.53,1.60,6.22,-0.35,-2.22,-0.25,
2025-03-15 10:31:46.569643,0.74,1.83,6.22,-0.64,-1.54,-0.29,
2025-03-15 10:31:46.596667,1.32,1.96,6.04,-0.40,-1.12,-0.11,
2025-03-15 10:31:46.623863,2.07,1.84,6.04,-0.36,-0.84,0.00,
2025-03-15 10:31:46.649553,2.33,1.48,6.41,-0.23,-0.39,0.07,
2025-03-15 10:31:46.676275,2.51,0.95,7.29,-0.03,-0.23,0.06,
2025-03-15 10:31:46.703302,2.74,0.74,7.50,0.02,-0.22,-0.06,
2025-03-15 10:31:46.729280,2.66,1.23,7.79,0.02,-0.02,-0.06,
2025-03-15 10:31:46.756269,2.96,1.03,8.16,0.26,0.03,-0.02,
2025-03-15 10:31:46.782789,2.76,1.09,8.03,0.27,-0.09,-0.05,
2025-03-15 10:31:46.809523,2.98,0.95,7.61,0.03,-0.09,-0.09,
2025-03-15 10:31:46.838008,3.09,0.74,7.18,0.21,-0.01,-0.17,
2025-03-15 10:31:46.863516,3.05,0.98,6.39,0.27,-0.02,-0.22,
2025-03-15 10:31:46.889534,2.76,1.35,5.90,0.31,0.50,-0.21,
2025-03-15 10:31:46.918775,2.67,1.62,6.90,0.20,1.08,-0.18,
2025-03-15 10:31:46.942565,2.23,1.73,8.03,0.05,1.22,-0.13,
2025-03-15 10:31:46.969312,1.63,1.88,8.81,0.02,1.30,-0.08,
2025-03-15 10:31:46.997673,1.36,2.04,9.33,0.12,1.37,-0.01,
2025-03-15 10:31:47.022519,0.57,1.22,9.72,0.06,1.05,0.07,
2025-03-15 10:31:47.050486,0.47,1.24,9.26,0.21,1.19,-0.05,
2025-03-15 10:31:47.076843,-0.50,1.95,10.08,-0.12,1.37,-0.09,
2025-03-15 10:31:47.102880,-0.87,2.10,10.30,-0.10,1.41,0.04,
2025-03-15 10:31:47.129546,-1.58,1.13,11.78,-0.02,1.44,0.23,
2025-03-15 10:31:47.156253,-1.66,0.81,11.86,-0.14,1.08,0.08,
2025-03-15 10:31:47.183187,-2.15,1.48,12.49,-0.03,0.90,-0.07,
2025-03-15 10:31:47.210969,-2.02,1.55,12.56,0.13,0.43,-0.00,
2025-03-15 10:31:47.236485,-1.87,1.49,12.39,0.15,0.17,-0.02,
2025-03-15 10:31:47.263182,-1.73,1.82,11.16,0.03,-0.15,-0.06,
2025-03-15 10:31:47.290196,-1.73,2.26,10.71,-0.06,-0.11,0.05,
2025-03-15 10:31:47.316700,-1.69,1.67,10.63,-0.11,0.01,0.15,
2025-03-15 10:31:47.343760,-1.66,1.38,10.92,0.04,0.09,0.06,
2025-03-15 10:31:47.369808,-1.75,1.56,12.78,-0.09,0.02,0.03,
2025-03-15 10:31:47.396996,-1.83,1.56,13.38,0.03,-0.46,-0.01,
2025-03-15 10:31:47.425960,-1.86,1.80,12.90,0.07,-0.85,0.02,
2025-03-15 10:31:47.452089,-1.92,1.68,12.88,0.01,-1.03,0.06,
2025-03-15 10:31:47.476973,-1.49,1.40,13.51,-0.08,-1.14,0.06,
2025-03-15 10:31:47.503499,-1.33,1.49,13.60,-0.19,-1.68,-0.02,
2025-03-15 10:31:47.533234,-1.20,1.66,13.14,-0.19,-2.42,0.01,
2025-03-15 10:31:47.556942,-0.57,1.48,9.52,-0.06,-2.66,0.02,
2025-03-15 10:31:47.583621,0.15,1.67,7.89,-0.41,-2.14,0.01,
2025-03-15 10:31:47.610427,1.18,1.51,7.35,-0.62,-1.82,-0.01,
2025-03-15 10:31:47.637435,1.64,1.44,7.38,-0.62,-1.56,-0.10,
2025-03-15 10:31:47.669475,2.31,1.15,6.75,-0.81,-1.44,-0.07,
2025-03-15 10:31:47.690495,2.79,0.45,6.35,-0.67,-1.26,-0.19,
2025-03-15 10:31:47.722707,3.56,0.78,5.68,-0.45,-0.89,-0.38,
2025-03-15 10:31:47.743808,3.99,1.16,5.74,-0.37,-0.45,-0.33,
2025-03-15 10:31:47.770861,4.32,1.56,8.01,-0.28,-0.01,-0.26,
2025-03-15 10:31:47.797351,4.36,1.61,8.67,-0.21,-0.30,-0.12,
2025-03-15 10:31:47.825568,4.52,1.20,7.76,0.02,-0.43,0.04,
2025-03-15 10:31:47.850593,4.55,0.96,7.36,0.03,-0.38,0.07,
2025-03-15 10:31:47.877267,4.39,0.86,7.13,-0.04,-0.17,0.08,
2025-03-15 10:31:47.903689,4.36,0.74,7.26,0.04,0.07,0.09,
2025-03-15 10:31:47.930480,4.44,0.53,7.26,0.01,0.26,0.04,
2025-03-15 10:31:47.957016,4.23,0.48,7.38,0.16,0.19,0.01,
2025-03-15 10:31:47.983679,4.08,0.63,6.79,0.26,0.15,-0.02,
2025-03-15 10:31:48.015978,4.07,0.59,5.33,0.31,0.32,-0.05,
2025-03-15 10:31:48.037535,3.99,0.72,4.65,0.50,0.73,-0.10,
2025-03-15 10:31:48.074547,3.30,1.19,4.45,0.50,1.41,-0.19,
2025-03-15 10:31:48.092859,2.77,1.51,5.35,0.55,2.01,-0.16,
2025-03-15 10:31:48.122683,1.97,2.18,9.35,0.35,2.91,-0.18,
2025-03-15 10:31:48.146282,1.23,2.38,11.49,-0.00,2.79,-0.01,
2025-03-15 10:31:48.176887,0.68,2.32,12.52,0.07,2.10,0.27,
2025-03-15 10:31:48.212208,-0.06,1.09,12.60,0.13,1.53,0.32,
2025-03-15 10:31:48.225193,-0.12,0.66,12.01,-0.04,1.29,0.16,
2025-03-15 10:31:48.250809,-0.93,0.67,12.12,-0.10,1.09,0.07,
2025-03-15 10:31:48.279048,-0.95,0.99,11.85,-0.20,0.61,-0.10,
2025-03-15 10:31:48.312678,-1.00,1.90,9.72,-0.36,0.54,-0.09,
2025-03-15 10:31:48.338454,-1.23,2.11,9.52,-0.18,0.74,0.05,
2025-03-15 10:31:48.358991,-1.66,1.48,11.40,0.04,1.00,0.29,
2025-03-15 10:31:48.385181,-1.93,0.79,12.36,0.12,0.71,0.30,
2025-03-15 10:31:48.410393,-1.81,0.54,12.38,0.04,0.31,0.05,
2025-03-15 10:31:48.443978,-1.84,0.79,12.39,0.01,0.01,-0.06,
2025-03-15 10:31:48.465990,-1.86,1.01,12.29,0.08,-0.26,-0.07,
2025-03-15 10:31:48.490773,-1.25,1.24,10.89,0.01,-0.35,-0.12,
2025-03-15 10:31:48.517347,-1.28,1.67,10.85,-0.01,-0.23,-0.12,
2025-03-15 10:31:48.544280,-1.34,2.10,12.38,-0.09,-0.21,0.05,
2025-03-15 10:31:48.570687,-1.31,1.54,13.84,0.01,-0.75,0.09,
2025-03-15 10:31:48.597261,-1.91,1.09,14.39,0.04,-1.40,0.10,
2025-03-15 10:31:48.630429,-1.55,0.69,12.94,0.01,-1.98,0.06,
2025-03-15 10:31:48.650898,-0.81,0.85,11.27,-0.22,-2.10,-0.19,
2025-03-15 10:31:48.681680,-0.80,1.46,10.64,-0.35,-2.31,-0.09,
2025-03-15 10:31:48.704379,0.54,0.45,8.09,-0.14,-2.26,-0.09,
2025-03-15 10:31:48.731014,1.20,0.79,7.44,-0.35,-1.83,-0.33,
2025-03-15 10:31:48.761966,1.75,1.24,7.39,-0.57,-1.42,-0.38,
2025-03-15 10:31:48.784736,2.52,1.69,7.68,-0.35,-1.36,-0.28,
2025-03-15 10:31:48.810845,2.84,1.67,7.13,-0.05,-1.28,-0.16,
2025-03-15 10:31:48.839240,3.60,1.20,6.16,-0.08,-1.09,-0.13,
2025-03-15 10:31:48.864725,3.99,1.01,6.12,-0.13,-0.63,-0.19,
2025-03-15 10:31:48.892616,4.07,1.73,7.03,-0.17,-0.22,-0.16,
2025-03-15 10:31:48.917682,4.22,1.48,7.56,-0.10,-0.09,-0.06,
2025-03-15 10:31:48.944476,4.35,1.20,8.08,-0.09,-0.09,-0.02,
2025-03-15 10:31:48.971219,4.31,1.04,8.37,-0.04,-0.05,0.02,
2025-03-15 10:31:49.000388,4.11,0.85,9.19,0.06,-0.18,0.03,
2025-03-15 10:31:49.023946,4.16,0.77,8.34,0.11,-0.40,0.01,
2025-03-15 10:31:49.053869,4.39,0.72,7.25,-0.04,-0.09,-0.05,
2025-03-15 10:31:49.079791,4.32,1.05,6.57,-0.18,0.21,-0.03,
2025-03-15 10:31:49.104027,4.36,0.95,7.12,-0.00,0.54,-0.05,
2025-03-15 10:31:49.130712,4.12,1.03,7.91,0.15,0.33,-0.03,
2025-03-15 10:31:49.157442,4.06,1.15,6.91,0.31,0.19,-0.07,
2025-03-15 10:31:49.185800,3.69,1.47,4.88,0.40,0.50,-0.07,
2025-03-15 10:31:49.210866,3.49,1.33,4.64,0.35,1.20,-0.02,
2025-03-15 10:31:49.238860,3.15,1.60,6.24,0.11,2.06,-0.12,
2025-03-15 10:31:49.263985,2.29,2.21,8.33,0.10,2.25,-0.02,
2025-03-15 10:31:49.290611,1.13,1.82,9.70,0.28,1.92,0.22,
2025-03-15 10:31:49.317017,0.91,1.55,9.93,0.22,2.04,0.22,
2025-03-15 10:31:49.343866,0.52,1.44,11.20,-0.03,2.07,0.20,
2025-03-15 10:31:49.370636,-0.39,0.83,12.63,-0.22,1.51,0.11,
2025-03-15 10:31:49.397643,-0.75,0.53,12.30,-0.31,1.13,-0.06,
2025-03-15 10:31:49.423956,-0.70,1.58,11.33,-0.37,0.97,-0.18,
2025-03-15 10:31:49.453581,-1.03,2.46,11.08,-0.34,0.80,0.08,
2025-03-15 10:31:49.478610,-1.32,1.52,11.36,-0.09,0.70,0.39,
2025-03-15 10:31:49.504015,-1.46,0.80,11.37,0.11,0.55,0.37,
2025-03-15 10:31:49.532732,-1.37,0.30,11.34,0.03,0.44,0.08,
2025-03-15 10:31:49.559359,-1.48,0.83,11.75,-0.01,0.29,-0.05,
2025-03-15 10:31:49.584084,-1.50,1.61,11.30,0.04,0.00,0.02,
2025-03-15 10:31:49.610848,-1.41,1.50,10.80,0.08,-0.09,0.15,
2025-03-15 10:31:49.637574,-1.13,0.73,10.33,0.11,-0.13,0.11,
2025-03-15 10:31:49.664511,-1.11,1.17,10.28,0.16,-0.17,0.01,
2025-03-15 10:31:49.690994,-1.00,1.29,10.20,0.20,-0.23,0.02,
2025-03-15 10:31:49.717625,-0.63,1.39,9.69,0.16,-0.27,-0.02,
2025-03-15 10:31:49.744304,-0.55,1.61,9.50,0.17,-0.19,-0.03,
2025-03-15 10:31:49.771129,-0.44,1.70,9.50,0.13,-0.18,0.01,
2025-03-15 10:31:49.797603,-0.42,1.57,9.33,0.25,-0.17,0.03,
2025-03-15 10:31:49.824910,-0.32,1.61,9.07,0.19,-0.14,-0.01,
2025-03-15 10:31:49.850994,-0.27,1.51,9.32,0.16,-0.04,-0.06,
2025-03-15 10:31:49.877995,-0.44,2.00,9.33,0.12,-0.09,-0.03,
2025-03-15 10:31:49.904260,-0.33,1.90,9.34,-0.05,0.06,0.06,
2025-03-15 10:31:49.932048,-0.34,1.58,9.83,-0.17,0.09,0.03,
2025-03-15 10:31:49.957411,-0.44,1.49,9.88,-0.30,-0.01,-0.01,
2025-03-15 10:31:49.984256,-0.37,1.42,9.72,-0.32,-0.04,-0.03,
2025-03-15 10:31:50.015771,-0.32,1.37,9.63,-0.19,0.08,-0.08,
2025-03-15 10:31:50.037598,-0.51,1.73,10.23,-0.18,0.04,-0.02,
2025-03-15 10:31:50.064346,-0.41,1.65,10.71,-0.17,-0.12,0.09,
2025-03-15 10:31:50.093505,-0.51,1.29,10.50,-0.15,-0.28,0.09,
2025-03-15 10:31:50.117652,-0.31,1.06,9.86,-0.05,-0.24,0.03,
2025-03-15 10:31:50.145337,-0.27,1.22,9.93,0.05,-0.21,-0.01,
2025-03-15 10:31:50.172754,-0.16,1.32,9.63,-0.00,-0.20,-0.04,
2025-03-15 10:31:50.198100,-0.13,1.54,9.68,-0.17,-0.10,-0.04,
2025-03-15 10:31:50.224895,-0.17,1.54,9.78,-0.27,-0.14,0.00,
2025-03-15 10:31:50.251506,0.00,1.38,9.82,0.03,-0.16,0.05,
2025-03-15 10:31:50.277739,0.02,1.31,9.67,0.02,-0.14,0.06,
2025-03-15 10:31:50.304222,0.06,1.01,9.48,-0.12,-0.08,0.02,
2025-03-15 10:31:50.330937,0.01,1.12,9.68,-0.09,-0.13,-0.05,
2025-03-15 10:31:50.357732,0.07,1.36,9.23,-0.07,-0.06,-0.03,
2025-03-15 10:31:50.384584,0.04,1.27,9.31,-0.05,0.03,-0.02,
2025-03-15 10:31:50.410883,-0.02,1.13,9.61,-0.08,0.07,-0.02,
2025-03-15 10:31:50.437454,0.23,1.14,9.60,0.09,0.12,-0.04,
2025-03-15 10:31:50.464381,0.07,1.38,10.07,0.02,0.18,-0.04,
2025-03-15 10:31:50.490812,0.10,1.36,10.18,-0.04,0.10,-0.04,
2025-03-15 10:31:50.535233,0.04,1.36,10.23,-0.10,0.03,-0.01,
2025-03-15 10:31:50.544048,0.01,1.39,9.85,0.10,-0.11,0.02,
2025-03-15 10:31:50.569943,0.04,1.33,9.32,-0.07,-0.10,0.05,
2025-03-15 10:31:50.598430,-0.16,1.02,8.82,0.06,0.06,0.03,
2025-03-15 10:31:50.627360,0.01,1.11,8.71,0.12,0.17,-0.03,
2025-03-15 10:31:50.650225,-0.04,1.37,8.84,0.13,0.31,-0.04,
2025-03-15 10:31:50.677011,-0.25,1.38,9.47,0.30,0.38,0.00,
2025-03-15 10:31:50.707576,-0.24,1.54,9.93,0.26,0.39,-0.10,
2025-03-15 10:31:50.730566,-0.25,2.16,10.58,0.27,0.40,0.00,
2025-03-15 10:31:50.757178,-0.62,2.11,11.04,0.26,0.22,0.15,
2025-03-15 10:31:50.785707,-0.57,1.46,10.79,0.25,-0.11,0.15,
2025-03-15 10:31:50.811921,-0.43,1.85,9.50,0.38,-0.20,0.04,
2025-03-15 10:31:50.839742,-0.50,1.82,9.71,0.25,-0.08,0.10,
2025-03-15 10:31:50.868477,-0.24,1.58,9.91,0.11,-0.24,-0.01,
2025-03-15 10:31:50.890522,-0.45,2.22,9.11,0.12,-0.16,0.02,
2025-03-15 10:31:50.917031,-0.21,2.37,9.13,0.02,0.12,0.12,
2025-03-15 10:31:50.945380,-0.14,2.16,9.75,-0.08,0.06,0.12,
2025-03-15 10:31:50.970369,-0.18,2.15,9.77,-0.24,-0.02,0.08,
2025-03-15 10:31:51.000016,-0.36,2.10,9.27,-0.24,-0.01,0.11,
2025-03-15 10:31:51.024911,-0.33,2.04,9.06,-0.54,0.16,0.11,
2025-03-15 10:31:51.050452,-0.46,1.55,9.98,-0.20,0.33,0.07,
2025-03-15 10:31:51.077085,-0.41,1.70,10.25,0.03,0.27,0.06,
2025-03-15 10:31:51.104531,-0.59,1.79,10.34,-0.03,0.20,0.11,
2025-03-15 10:31:51.130508,-0.49,1.47,10.13,0.04,0.14,0.10,
2025-03-15 10:31:51.157159,-0.53,2.21,9.32,-0.32,0.10,0.07,
2025-03-15 10:31:51.183796,-0.46,2.01,9.16,-0.50,0.20,0.15,
2025-03-15 10:31:51.210664,-0.57,1.72,9.41,-0.05,0.32,0.21,
2025-03-15 10:31:51.240903,-0.50,1.21,9.69,-0.45,0.22,0.17,
2025-03-15 10:31:51.264205,-0.61,1.06,9.31,-0.69,0.26,0.07,
2025-03-15 10:31:51.290455,0.59,-2.01,9.99,-1.82,-0.13,0.08,
2025-03-15 10:31:51.318530,-0.84,-0.29,10.14,-0.79,-0.19,0.03,
2025-03-15 10:31:51.344556,-0.50,0.63,9.28,-0.87,-0.06,0.01,
2025-03-15 10:31:51.371247,-0.63,0.73,9.54,-1.08,0.02,-0.05,
2025-03-15 10:31:51.399382,-2.72,-2.12,29.76,-1.83,-0.00,-0.08,
2025-03-15 10:31:51.424089,-2.08,0.58,16.31,-0.26,-0.37,-0.11,
2025-03-15 10:31:51.453852,-0.78,-0.01,9.93,-0.09,-0.44,0.03,
2025-03-15 10:31:51.477328,-0.26,0.02,9.98,-0.03,-0.39,0.00,
2025-03-15 10:31:51.504606,-0.46,0.11,9.93,-0.03,-0.38,-0.03,
2025-03-15 10:31:51.535419,-0.31,-0.02,9.84,-0.00,-0.34,-0.11,
2025-03-15 10:31:51.557104,0.26,-0.00,9.78,-0.02,0.00,0.01,
2025-03-15 10:31:51.585145,-0.82,0.25,9.49,0.02,0.02,-0.02,
2025-03-15 10:31:51.610570,-0.02,-0.18,9.83,0.01,0.03,0.00,
2025-03-15 10:31:51.637883,-0.37,-0.02,10.01,0.05,0.15,0.23,
2025-03-15 10:31:51.663853,-0.76,-0.13,9.99,-0.02,0.02,0.44,
2025-03-15 10:31:51.690286,0.09,0.13,9.90,-0.01,0.02,0.01,
2025-03-15 10:31:51.717812,-0.10,-0.07,9.91,-0.03,0.01,0.03,
2025-03-15 10:31:51.743915,-0.05,0.04,9.96,-0.02,0.01,0.05,
2025-03-15 10:31:51.770283,-0.19,-0.01,9.93,-0.03,-0.00,0.04,
2025-03-15 10:31:51.796884,-0.14,-0.05,9.93,-0.03,0.01,0.01,
2025-03-15 10:31:51.822808,-0.15,-0.02,9.94,-0.03,0.00,0.01,
2025-03-15 10:31:51.850104,-0.08,-0.08,9.95,-0.03,0.00,0.01,
2025-03-15 10:31:51.876645,-0.14,0.00,9.90,-0.02,0.01,0.00,
2025-03-15 10:31:51.903069,-0.09,-0.05,9.95,-0.03,-0.00,0.00,
2025-03-15 10:31:51.929858,-0.08,-0.04,9.96,-0.03,0.00,-0.00,
2025-03-15 10:31:51.957631,-0.11,0.01,9.90,-0.03,0.00,0.00,
2025-03-15 10:31:51.983218,-0.16,-0.02,9.94,-0.03,0.00,-0.00,
2025-03-15 10:31:52.009734,-0.11,-0.04,9.95,-0.03,0.01,-0.01,
2025-03-15 10:31:52.038432,-0.04,-0.04,9.90,-0.02,0.01,-0.00,
2025-03-15 10:31:52.062710,-0.11,-0.02,9.88,-0.02,0.00,0.00,
2025-03-15 10:31:52.089115,-0.12,-0.06,9.94,-0.03,0.01,-0.01,
2025-03-15 10:31:52.115214,-0.13,0.02,9.98,-0.02,0.01,-0.01,
2025-03-15 10:31:52.143706,-0.15,-0.03,9.92,-0.02,0.01,0.00,
2025-03-15 10:31:52.169692,-0.13,-0.05,9.89,-0.03,0.01,-0.00,
2025-03-15 10:31:52.195955,-0.12,0.04,9.96,-0.03,0.00,0.01,
2025-03-15 10:31:52.224799,-0.15,-0.04,9.90,-0.02,0.00,0.00,
2025-03-15 10:31:52.249142,-0.12,-0.07,9.92,-0.03,0.00,0.00,
2025-03-15 10:31:52.276368,-0.12,-0.03,9.96,-0.03,0.01,0.00,
2025-03-15 10:31:52.301868,-0.14,-0.04,9.87,-0.03,0.01,-0.00,
2025-03-15 10:31:52.330943,-0.11,-0.03,9.97,-0.03,-0.00,-0.00,
2025-03-15 10:31:52.356046,-0.11,-0.02,9.93,-0.02,0.00,0.00,
2025-03-15 10:31:52.381759,-0.05,-0.01,9.93,-0.03,0.00,-0.01,
2025-03-15 10:31:52.408320,-0.13,-0.03,9.88,-0.03,0.01,-0.01,
2025-03-15 10:31:52.435288,-0.14,-0.05,9.96,-0.03,0.00,-0.01,
2025-03-15 10:31:52.461217,-0.11,-0.03,9.96,-0.02,0.01,-0.01,
2025-03-15 10:31:52.488286,-0.15,-0.05,9.90,-0.03,0.01,-0.01,
2025-03-15 10:31:52.515077,-0.10,-0.06,9.87,-0.03,0.00,-0.01,
2025-03-15 10:31:52.541866,-0.09,-0.02,9.94,-0.02,0.01,-0.01,
2025-03-15 10:31:52.572336,-0.09,-0.02,9.99,-0.03,0.01,-0.00,
2025-03-15 10:31:52.594564,-0.07,-0.00,10.00,-0.02,0.01,-0.01,
2025-03-15 10:31:52.621245,-0.11,-0.08,9.92,-0.03,0.00,-0.00,
2025-03-15 10:31:52.648423,-0.11,0.01,9.90,-0.02,0.01,-0.01,
2025-03-15 10:31:52.675915,-0.08,-0.05,9.83,-0.03,0.01,-0.00,
2025-03-15 10:31:52.701411,-0.11,0.01,9.94,-0.02,0.01,0.00,
2025-03-15 10:31:52.730488,-0.07,-0.07,9.92,-0.03,0.01,-0.00,
2025-03-15 10:31:52.756479,-0.18,0.08,9.95,-0.03,0.00,0.05,
2025-03-15 10:31:52.780508,-0.10,-0.05,10.03,-0.02,0.01,0.07,
2025-03-15 10:31:52.807283,-0.38,-0.09,9.98,-0.03,0.01,0.15,
2025-03-15 10:31:52.834329,0.06,-0.04,10.00,-0.03,0.01,0.10,
2025-03-15 10:31:52.861275,-0.11,-0.04,9.94,-0.03,0.00,0.01,
2025-03-15 10:31:52.887547,0.04,-0.01,9.97,-0.02,0.01,0.01,
2025-03-15 10:31:52.914030,-0.10,-0.11,9.96,-0.02,0.01,-0.00,
2025-03-15 10:31:52.940675,-0.10,-0.00,9.95,-0.02,0.01,0.00,
2025-03-15 10:31:52.967758,-0.18,0.02,9.98,-0.02,0.01,0.02,
2025-03-15 10:31:52.994185,-0.12,-0.03,9.88,-0.03,0.01,0.02,
2025-03-15 10:31:53.020746,-0.01,-0.03,9.93,-0.02,0.00,0.02,
2025-03-15 10:31:53.047429,-0.14,-0.04,9.88,-0.02,0.01,-0.00,
2025-03-15 10:31:53.074227,-0.10,-0.03,9.95,-0.03,0.00,-0.01,
2025-03-15 10:31:53.100635,-0.14,-0.06,9.99,-0.03,0.00,-0.01,
2025-03-15 10:31:53.127423,-0.11,-0.02,9.88,-0.02,0.01,-0.01,
2025-03-15 10:31:53.154110,-0.06,-0.03,9.94,-0.02,0.01,-0.01,
2025-03-15 10:31:53.180924,-0.12,0.00,9.96,-0.03,0.01,-0.00,
2025-03-15 10:31:53.207087,-0.09,0.00,9.94,-0.02,0.01,-0.01,
2025-03-15 10:31:53.233982,-0.07,0.00,9.95,-0.02,0.01,-0.01,
2025-03-15 10:31:53.260243,-0.11,-0.06,9.89,-0.02,0.01,-0.01,
2025-03-15 10:31:53.290754,-0.11,-0.02,9.96,-0.03,0.01,-0.00,
2025-03-15 10:31:53.313282,-0.14,-0.01,9.99,-0.02,0.01,-0.00,
2025-03-15 10:31:53.339923,-0.06,-0.07,9.91,-0.02,0.00,-0.01,
2025-03-15 10:31:53.368401,-0.10,-0.06,9.93,-0.03,0.00,-0.01,
2025-03-15 10:31:53.393141,-0.11,0.00,9.95,-0.02,0.00,-0.00,
2025-03-15 10:31:53.420044,-0.09,0.05,10.00,-0.02,0.01,-0.00,
2025-03-15 10:31:53.447391,-0.09,-0.04,9.96,-0.02,-0.00,-0.00,
2025-03-15 10:31:53.475139,-0.06,-0.03,9.94,-0.02,0.01,-0.01,
2025-03-15 10:31:53.508432,-0.18,-0.03,9.94,-0.03,0.00,0.00,
2025-03-15 10:31:53.526079,-0.14,-0.04,9.95,-0.03,0.01,0.02,
2025-03-15 10:31:53.552735,-0.07,-0.05,9.94,-0.03,0.01,0.02,
2025-03-15 10:31:53.579846,-0.13,-0.03,9.91,-0.03,0.01,0.01,
2025-03-15 10:31:53.608028,-0.11,-0.03,9.92,-0.03,0.00,0.00,
2025-03-15 10:31:53.634415,-0.11,0.00,9.93,-0.03,0.01,-0.00,
2025-03-15 10:31:53.659229,-0.11,-0.02,9.94,-0.03,0.01,-0.00,
2025-03-15 10:31:53.686403,-0.13,-0.03,9.95,-0.03,0.01,-0.01,
2025-03-15 10:31:53.714263,-0.07,-0.04,9.95,-0.02,0.01,-0.00,
2025-03-15 10:31:53.739748,-0.11,-0.02,9.95,-0.02,0.01,-0.01,
2025-03-15 10:31:53.765752,-0.12,-0.03,9.91,-0.02,0.01,-0.00,
2025-03-15 10:31:53.792257,-0.11,-0.05,9.95,-0.03,0.01,-0.01,
2025-03-15 10:31:53.819236,-0.13,-0.06,9.92,-0.02,0.01,-0.01,
2025-03-15 10:31:53.845699,-0.18,-0.02,9.91,-0.02,0.01,-0.00,
2025-03-15 10:31:53.872295,-0.14,0.01,9.92,-0.02,0.00,-0.01,
2025-03-15 10:31:53.901636,-0.21,-0.00,9.93,-0.02,0.00,-0.01,
2025-03-15 10:31:53.925611,-0.07,-0.01,9.91,-0.02,0.01,-0.01,
2025-03-15 10:31:53.951893,-0.09,-0.06,9.93,-0.03,0.01,-0.01,
2025-03-15 10:31:53.980001,-0.08,-0.09,9.86,-0.02,0.01,-0.00,
2025-03-15 10:31:54.006388,-0.07,0.00,9.91,-0.03,0.00,-0.01,
2025-03-15 10:31:54.031742,-0.13,0.03,9.93,-0.02,0.00,-0.00,
2025-03-15 10:31:54.058474,-0.05,-0.05,10.01,-0.03,0.01,-0.01,
2025-03-15 10:31:54.085352,-0.11,-0.02,9.88,-0.03,0.01,-0.01,
2025-03-15 10:31:54.111645,-0.12,-0.08,9.90,-0.03,0.01,-0.01,
2025-03-15 10:31:54.139886,-0.10,-0.05,9.95,-0.02,0.01,-0.01,
2025-03-15 10:31:54.166165,-0.11,-0.03,10.00,-0.02,0.01,-0.01,
2025-03-15 10:31:54.191526,-0.11,-0.04,9.93,-0.02,0.01,-0.01,
2025-03-15 10:31:54.218586,-0.06,-0.06,9.94,-0.02,0.01,-0.01,
2025-03-15 10:31:54.244863,-0.16,-0.04,9.91,-0.02,0.01,-0.01,
2025-03-15 10:31:54.272079,-0.15,-0.11,9.94,-0.03,0.01,-0.00,
2025-03-15 10:31:54.298468,-0.12,-0.05,9.92,-0.02,0.01,-0.01,
2025-03-15 10:31:54.324695,-0.13,-0.01,9.90,-0.03,0.01,-0.00,
2025-03-15 10:31:54.351230,-0.56,-0.17,9.89,-0.03,0.01,0.18,
2025-03-15 10:31:54.377968,-0.01,-0.06,9.94,-0.02,0.01,0.02,
2025-03-15 10:31:54.406589,0.01,-0.03,9.89,-0.03,0.01,-0.00,
2025-03-15 10:31:54.431098,-0.17,-0.09,9.89,-0.03,0.00,-0.01,
2025-03-15 10:31:54.457804,-0.42,-0.05,9.96,-0.03,0.00,0.02,
2025-03-15 10:31:54.498370,-0.83,0.19,9.93,-0.06,-0.00,0.19,
2025-03-15 10:31:54.511108,-0.95,-0.31,10.01,-0.04,0.01,0.35,
2025-03-15 10:31:54.537796,-0.27,-0.08,9.77,0.02,0.03,0.09,
2025-03-15 10:31:54.564350,0.68,0.31,10.04,-0.02,0.01,-0.15,
2025-03-15 10:31:54.591244,0.69,-0.11,9.64,-0.01,0.01,-0.05,
2025-03-15 10:31:54.619974,0.48,-0.27,9.68,-0.02,0.01,0.01,
2025-03-15 10:31:54.645338,-0.17,-0.11,9.88,-0.02,0.01,0.02,
2025-03-15 10:31:54.670999,-0.60,0.03,9.95,-0.05,0.00,0.04,
2025-03-15 10:31:54.697830,-1.72,-0.85,9.69,-0.02,0.01,0.06,
2025-03-15 10:31:54.724245,-0.94,-0.19,9.58,-0.00,0.02,0.04,
2025-03-15 10:31:54.750835,0.65,-0.81,9.02,0.05,0.03,-0.16,
2025-03-15 10:31:54.778455,0.48,0.13,10.35,-0.02,0.01,-0.11,
2025-03-15 10:31:54.804433,0.23,-0.03,10.13,-0.04,0.01,-0.01,
2025-03-15 10:31:54.836633,0.07,0.04,9.95,-0.03,0.00,-0.01,
2025-03-15 10:31:54.857517,-0.11,0.00,9.89,-0.03,0.01,0.02,
2025-03-15 10:31:54.884049,-0.46,-0.23,9.88,-0.01,0.01,0.01,
2025-03-15 10:31:54.910748,-0.49,0.05,10.00,-0.03,0.01,0.03,
2025-03-15 10:31:54.939774,0.53,0.00,9.78,-0.00,0.02,-0.04,
2025-03-15 10:31:54.968260,0.49,0.10,9.87,-0.02,0.01,-0.01,
2025-03-15 10:31:54.993792,-0.14,-0.01,9.94,-0.03,0.00,-0.01,
2025-03-15 10:31:55.018168,-0.32,-0.01,9.91,-0.03,0.01,-0.00,
2025-03-15 10:31:55.044044,-0.84,0.03,9.89,-0.01,0.02,0.08,
2025-03-15 10:31:55.070991,-0.06,-0.03,9.81,-0.04,0.00,0.14,
2025-03-15 10:31:55.099470,-0.01,-0.18,9.94,-0.06,-0.01,0.09,
2025-03-15 10:31:55.123935,0.02,0.04,9.86,-0.03,0.01,0.05,
2025-03-15 10:31:55.150521,0.34,0.19,9.94,-0.02,0.01,0.03,
2025-03-15 10:31:55.177161,0.28,0.07,9.92,-0.02,0.01,0.01,
2025-03-15 10:31:55.203752,0.34,0.03,9.95,-0.03,0.01,-0.00,
2025-03-15 10:31:55.230495,-0.06,0.02,9.94,-0.02,0.01,-0.00,
2025-03-15 10:31:55.257061,-0.13,-0.09,9.94,-0.03,0.01,-0.00,
2025-03-15 10:31:55.283934,-0.14,-0.07,9.93,-0.02,0.01,-0.00,
2025-03-15 10:31:55.310324,-0.11,-0.01,9.90,-0.03,0.01,-0.00,
2025-03-15 10:31:55.337676,-0.09,-0.01,9.94,-0.03,0.01,-0.00,
2025-03-15 10:31:55.363291,0.03,-0.09,9.89,-0.02,0.00,-0.00,
2025-03-15 10:31:55.399933,-0.08,-0.07,9.93,-0.03,0.01,-0.01,
2025-03-15 10:31:55.417100,-0.09,-0.06,9.92,-0.02,0.01,-0.01,
2025-03-15 10:31:55.443022,-0.15,-0.08,9.91,-0.02,0.00,-0.01,
2025-03-15 10:31:55.469633,-0.30,-0.02,9.88,-0.02,0.00,0.01,
2025-03-15 10:31:55.499339,-0.33,-0.01,9.96,-0.03,0.00,0.06,
2025-03-15 10:31:55.523518,-0.08,-0.02,9.98,-0.02,0.01,0.01,
2025-03-15 10:31:55.550012,-0.02,0.07,9.95,-0.04,0.00,0.00,
2025-03-15 10:31:55.576656,-0.25,0.11,9.87,-0.02,0.01,0.02,
2025-03-15 10:31:55.603442,-0.50,0.15,9.84,-0.02,0.01,0.03,
2025-03-15 10:31:55.629869,0.21,-0.25,9.82,-0.02,0.01,-0.03,
2025-03-15 10:31:55.656603,0.28,0.14,9.95,-0.03,0.01,-0.01,
2025-03-15 10:31:55.682964,-0.13,-0.05,9.92,-0.03,0.00,-0.00,
2025-03-15 10:31:55.710091,-0.26,-0.04,9.90,-0.03,0.00,0.01,
2025-03-15 10:31:55.737818,-0.78,0.28,10.01,-0.02,0.00,0.01,
2025-03-15 10:31:55.763058,-0.46,-0.14,9.93,-0.02,0.01,0.04,
2025-03-15 10:31:55.791694,-0.33,-0.28,9.73,-0.01,0.01,-0.01,
2025-03-15 10:31:55.816253,0.25,-0.33,10.21,-0.03,0.02,-0.03,
2025-03-15 10:31:55.850876,0.70,0.03,9.85,-0.03,0.00,-0.02,
2025-03-15 10:31:55.869182,-0.08,0.02,9.99,-0.03,0.01,-0.02,
2025-03-15 10:31:55.896103,-0.10,-0.04,9.89,-0.03,0.01,-0.01,
2025-03-15 10:31:55.922570,-0.05,0.05,9.91,-0.02,0.01,-0.01,
2025-03-15 10:31:55.951513,-0.16,-0.04,9.96,-0.04,0.00,0.00,
2025-03-15 10:31:55.977171,-0.71,-0.03,9.86,-0.02,0.01,0.02,
2025-03-15 10:31:56.019378,0.36,-0.08,10.03,-0.03,0.00,0.00,
2025-03-15 10:31:56.033122,0.06,-0.02,9.93,-0.02,0.01,0.00,
2025-03-15 10:31:56.055252,-0.12,-0.07,9.96,-0.03,0.01,0.00,
2025-03-15 10:31:56.085065,0.05,-0.00,9.89,-0.04,0.00,0.00,
2025-03-15 10:31:56.109515,-0.25,-0.10,9.87,-0.03,0.01,-0.01,
2025-03-15 10:31:56.134960,-0.03,0.01,9.98,-0.03,0.01,-0.00,
2025-03-15 10:31:56.162148,-0.15,-0.01,10.01,-0.02,0.00,-0.00,
2025-03-15 10:31:56.188571,-0.10,-0.03,9.96,-0.03,0.01,-0.01,
2025-03-15 10:31:56.215158,-0.06,-0.06,9.91,-0.02,0.01,-0.00,
2025-03-15 10:31:56.241345,-0.17,0.01,9.91,-0.02,0.01,-0.01,
2025-03-15 10:31:56.270052,-0.08,-0.04,10.00,-0.03,0.01,-0.01,
2025-03-15 10:31:56.295569,-0.16,-0.03,9.94,-0.03,0.01,-0.01,
2025-03-15 10:31:56.326244,-0.15,-0.06,9.94,-0.02,0.00,-0.00,
2025-03-15 10:31:56.347597,-0.09,-0.01,9.96,-0.03,0.01,-0.01,
2025-03-15 10:31:56.374029,-0.12,-0.08,9.90,-0.02,0.00,-0.01,
2025-03-15 10:31:56.400778,-0.07,0.00,9.99,-0.02,0.00,-0.01,
2025-03-15 10:31:56.428066,-0.09,-0.03,9.88,-0.02,0.01,-0.01,
2025-03-15 10:31:56.458694,-0.08,-0.01,9.97,-0.02,0.01,-0.01,
2025-03-15 10:31:56.484343,-0.09,-0.01,9.95,-0.03,0.01,-0.01,
2025-03-15 10:31:56.510894,-0.09,-0.10,9.91,-0.03,0.01,-0.01,
2025-03-15 10:31:56.533214,-0.11,-0.08,9.92,-0.02,0.01,-0.01,
2025-03-15 10:31:56.559676,-0.09,-0.05,9.98,-0.02,0.01,-0.01,
2025-03-15 10:31:56.587282,-0.14,-0.07,9.95,-0.02,0.01,-0.00,
2025-03-15 10:31:56.613143,-0.07,-0.02,9.92,-0.02,0.01,-0.00,
2025-03-15 10:31:56.639749,-0.11,-0.01,9.94,-0.02,0.01,-0.01,
2025-03-15 10:31:56.668011,-0.12,-0.05,9.93,-0.03,0.01,-0.00,
2025-03-15 10:31:56.693153,-0.13,-0.05,9.96,-0.02,0.01,-0.00,
2025-03-15 10:31:56.719893,-0.11,-0.07,9.96,-0.03,0.01,-0.00,
2025-03-15 10:31:56.749199,-0.14,-0.06,9.90,-0.02,0.01,-0.01,
2025-03-15 10:31:56.778910,-0.12,-0.02,9.96,-0.03,0.01,-0.01,
2025-03-15 10:31:56.800022,-0.09,-0.00,9.91,-0.02,0.01,-0.01,
2025-03-15 10:31:56.826476,-0.06,-0.04,9.95,-0.02,0.01,-0.01,
2025-03-15 10:31:56.852855,-0.04,-0.05,9.91,-0.03,0.01,-0.01,
2025-03-15 10:31:56.887316,-0.11,-0.02,9.93,-0.03,0.00,-0.01,
2025-03-15 10:31:56.905963,-0.12,-0.06,9.94,-0.03,0.01,-0.01,
2025-03-15 10:31:56.933151,-0.08,-0.02,9.92,-0.03,0.01,-0.00,
2025-03-15 10:31:56.959248,-0.11,-0.02,9.90,-0.02,0.01,-0.01,
2025-03-15 10:31:56.986918,-0.09,-0.01,9.96,-0.02,0.01,0.00,
2025-03-15 10:31:57.012501,-0.12,-0.02,9.93,-0.03,0.01,-0.01,
2025-03-15 10:31:57.041359,-0.12,-0.03,9.94,-0.03,0.01,-0.01,
2025-03-15 10:31:57.068183,-0.09,-0.03,9.89,-0.03,0.01,-0.01,
2025-03-15 10:31:57.092238,-0.13,-0.06,9.91,-0.03,0.01,-0.01,
2025-03-15 10:31:57.121679,-0.14,-0.03,9.95,-0.03,0.01,-0.01,
2025-03-15 10:31:57.146900,-0.10,-0.03,9.96,-0.03,0.00,-0.01,
2025-03-15 10:31:57.172863,-0.08,-0.03,9.90,-0.02,0.01,-0.01,
2025-03-15 10:31:57.198368,-0.07,-0.01,9.88,-0.02,0.00,-0.01,
2025-03-15 10:31:57.227390,-0.16,-0.08,9.92,-0.02,0.01,-0.00,
2025-03-15 10:31:57.251718,-0.12,-0.00,9.95,-0.03,0.01,-0.01,
2025-03-15 10:31:57.278079,-0.11,-0.02,9.90,-0.02,0.01,-0.01,
2025-03-15 10:31:57.304758,-0.13,-0.02,9.95,-0.03,0.00,-0.00,
2025-03-15 10:31:57.338484,-0.13,-0.00,9.96,-0.03,0.00,-0.00,
2025-03-15 10:31:57.360060,-0.12,0.00,9.91,-0.02,0.00,-0.01,
2025-03-15 10:31:57.384799,-0.04,-0.08,9.98,-0.03,0.01,-0.01,
2025-03-15 10:31:57.412490,-0.16,-0.03,9.94,-0.03,0.01,-0.00,
2025-03-15 10:31:57.437499,-0.08,0.02,9.90,-0.02,0.00,-0.00,
2025-03-15 10:31:57.465902,-0.08,-0.03,9.91,-0.03,0.01,-0.01,
2025-03-15 10:31:57.489919,-0.14,-0.04,9.97,-0.02,0.01,-0.01,
2025-03-15 10:31:57.517261,-0.15,-0.05,9.96,-0.03,0.01,-0.01,
2025-03-15 10:31:57.544737,-0.14,-0.04,9.93,-0.03,0.01,-0.00,
2025-03-15 10:31:57.570585,-0.05,0.00,9.89,-0.03,0.00,-0.01,
2025-03-15 10:31:57.605917,-0.14,-0.06,9.90,-0.02,0.01,-0.01,
2025-03-15 10:31:57.624233,-0.06,-0.01,9.95,-0.02,0.01,-0.01,
2025-03-15 10:31:57.650552,-0.10,-0.01,9.94,-0.03,0.01,-0.01,
2025-03-15 10:31:57.692289,-0.13,-0.06,9.90,-0.03,0.01,-0.01,
2025-03-15 10:31:57.704645,-0.10,-0.08,9.97,-0.03,0.01,-0.01,
2025-03-15 10:31:57.730391,-0.12,-0.05,9.93,-0.02,0.00,-0.00,
2025-03-15 10:31:57.778411,-0.11,-0.01,9.92,-0.02,0.01,-0.01,
2025-03-15 10:31:57.784280,-0.12,-0.00,9.91,-0.03,0.01,-0.01,
2025-03-15 10:31:57.815192,-0.08,-0.04,9.94,-0.02,0.01,-0.01,
2025-03-15 10:31:57.842644,-0.11,-0.05,9.95,-0.02,0.00,-0.01,
2025-03-15 10:31:57.862833,-0.12,-0.07,9.95,-0.03,0.01,-0.00,
2025-03-15 10:31:57.896704,-0.12,-0.05,9.92,-0.02,0.01,-0.01,
2025-03-15 10:31:57.916073,-0.11,-0.04,9.91,-0.03,0.00,-0.00,
2025-03-15 10:31:57.943119,-0.09,-0.02,9.93,-0.03,0.01,-0.01,
2025-03-15 10:31:57.970006,-0.05,-0.05,10.00,-0.03,0.01,-0.01,
2025-03-15 10:31:57.999658,-0.09,-0.06,9.88,-0.03,0.00,-0.01,
2025-03-15 10:31:58.024869,-0.09,-0.07,9.94,-0.03,0.01,-0.01,
2025-03-15 10:31:58.066504,-0.12,-0.04,9.93,-0.03,0.01,-0.01,
2025-03-15 10:31:58.076385,-0.15,-0.02,9.93,-0.02,0.01,-0.01,
2025-03-15 10:31:58.103231,-0.07,-0.08,9.88,-0.02,0.01,-0.00,
2025-03-15 10:31:58.129462,-0.12,-0.03,9.93,-0.03,0.01,-0.01,
2025-03-15 10:31:58.157823,-0.10,-0.01,9.92,-0.03,0.01,-0.01,
2025-03-15 10:31:58.182616,-0.14,0.00,9.89,-0.03,0.01,-0.01,
2025-03-15 10:31:58.208711,-0.10,0.04,9.92,-0.03,0.01,-0.00,
2025-03-15 10:31:58.237551,-0.08,-0.06,9.96,-0.03,0.01,-0.01,
2025-03-15 10:31:58.265305,-0.13,-0.02,9.93,-0.02,0.01,-0.01,
2025-03-15 10:31:58.288177,-0.10,-0.06,9.92,-0.03,0.01,-0.01,
2025-03-15 10:31:58.317856,-0.08,-0.03,9.94,-0.02,0.01,-0.01,
2025-03-15 10:31:58.341579,-0.06,-0.03,9.94,-0.02,0.01,-0.00,
2025-03-15 10:31:58.367864,-0.05,-0.06,9.91,-0.03,0.01,0.00,
2025-03-15 10:31:58.394311,-0.16,-0.03,9.96,-0.02,0.01,-0.01,
2025-03-15 10:31:58.425169,-0.07,-0.02,9.89,-0.02,0.01,-0.00,
2025-03-15 10:31:58.448083,-0.11,-0.06,9.87,-0.02,0.01,-0.01,
2025-03-15 10:31:58.475393,-0.07,-0.05,9.90,-0.02,0.01,-0.00,
2025-03-15 10:31:58.500771,-0.09,-0.08,9.97,-0.02,0.01,0.00,
2025-03-15 10:31:58.532081,-0.11,-0.01,9.96,-0.03,0.01,-0.01,
2025-03-15 10:31:58.554868,-0.07,-0.10,9.98,-0.02,0.01,-0.01,
2025-03-15 10:31:58.580847,-0.10,-0.08,9.99,-0.02,0.01,-0.01,
2025-03-15 10:31:58.607236,-0.10,-0.03,9.98,-0.02,0.01,-0.01,
2025-03-15 10:31:58.648630,-0.07,0.01,9.95,-0.03,0.01,-0.01,
2025-03-15 10:31:58.660168,-0.09,-0.01,9.96,-0.03,0.01,-0.01,
2025-03-15 10:31:58.686568,-0.11,-0.07,10.01,-0.02,0.00,-0.01,
2025-03-15 10:31:58.717475,-0.05,-0.07,9.93,-0.03,0.00,-0.00,
2025-03-15 10:31:58.748143,-0.11,-0.07,9.96,-0.03,0.01,-0.01,
2025-03-15 10:31:58.775233,-0.14,-0.08,9.93,-0.03,0.01,-0.01,
2025-03-15 10:31:58.798019,-0.09,-0.04,9.91,-0.02,0.01,-0.01,
2025-03-15 10:31:58.838711,-0.44,-1.73,9.74,-0.04,0.00,-0.38,
2025-03-15 10:31:58.868188,0.17,0.16,9.84,0.01,0.01,-0.21,
2025-03-15 10:31:58.877168,0.18,0.93,9.98,-0.02,0.01,-0.06,
2025-03-15 10:31:58.898735,-0.11,-0.11,9.91,-0.02,0.01,-0.03,
2025-03-15 10:31:58.925158,-0.00,-0.63,9.98,-0.03,0.00,-0.02,
2025-03-15 10:31:58.952239,-0.23,0.21,9.75,-0.04,0.00,-0.13,
2025-03-15 10:31:58.979712,-0.03,0.37,9.95,-0.05,-0.00,-0.00,
2025-03-15 10:31:59.008596,-0.19,0.43,10.00,-0.20,0.01,0.13,
2025-03-15 10:31:59.032033,-0.22,0.68,10.20,-0.12,-0.14,0.12,
2025-03-15 10:31:59.059325,-0.06,-0.37,9.80,-0.08,-0.17,0.12,
2025-03-15 10:31:59.084892,-0.10,-0.09,9.62,0.09,-0.11,0.11,
2025-03-15 10:31:59.113447,-0.06,0.21,10.02,0.04,-0.11,0.10,
2025-03-15 10:31:59.144759,0.03,-0.38,9.97,0.13,-0.05,0.11,
2025-03-15 10:31:59.165461,0.18,0.12,10.35,-0.16,-0.14,0.12,
2025-03-15 10:31:59.195433,0.10,-0.26,10.43,-0.59,-0.22,0.05,
2025-03-15 10:31:59.218920,0.06,-0.87,9.87,-0.66,-0.21,-0.04,
2025-03-15 10:31:59.246912,0.15,-1.25,10.04,-0.40,-0.23,-0.26,
2025-03-15 10:31:59.271972,0.23,-0.50,9.91,-0.55,-0.24,-0.17,
2025-03-15 10:31:59.299530,0.51,-0.10,9.95,-0.91,-0.23,-0.13,
2025-03-15 10:31:59.331193,0.36,-0.85,10.02,-0.96,-0.25,-0.14,
2025-03-15 10:31:59.352082,0.46,-1.92,9.37,-0.66,-0.26,-0.14,
2025-03-15 10:31:59.378934,0.48,-1.74,8.15,-0.86,0.01,-0.26,
2025-03-15 10:31:59.413488,0.38,-0.18,10.34,-0.35,0.05,-0.09,
2025-03-15 10:31:59.433052,0.41,-0.38,11.01,-0.09,-0.08,0.10,
2025-03-15 10:31:59.459044,-0.14,-1.17,11.00,-0.02,-0.24,-0.02,
2025-03-15 10:31:59.489630,0.52,-2.37,10.50,0.26,-0.37,0.05,
2025-03-15 10:31:59.515776,1.51,-3.30,9.21,0.77,-0.35,0.30,
2025-03-15 10:31:59.539077,1.77,-1.23,8.89,-0.65,-0.21,0.07,
2025-03-15 10:31:59.565811,1.30,-2.58,10.18,-0.94,-0.39,0.09,
2025-03-15 10:31:59.592963,1.95,-2.78,10.43,-1.05,-0.48,-0.07,
2025-03-15 10:31:59.619383,-0.17,-0.26,10.98,-1.20,-0.84,0.39,
2025-03-15 10:31:59.646312,1.30,-3.27,7.75,-0.24,-0.49,-0.14,
2025-03-15 10:31:59.690669,2.94,-4.52,7.52,0.00,-0.19,-0.28,
2025-03-15 10:31:59.701496,2.32,-3.96,9.74,0.14,-0.13,-0.80,
2025-03-15 10:31:59.727091,1.70,-2.97,9.29,-0.75,0.02,-0.94,
2025-03-15 10:31:59.753261,1.53,-1.02,10.27,-0.35,-0.20,-0.27,
2025-03-15 10:31:59.779339,3.57,-2.19,8.26,0.81,0.08,1.10,
2025-03-15 10:31:59.809510,0.68,-3.73,11.34,0.82,-0.52,0.89,
2025-03-15 10:31:59.832883,1.06,-2.93,9.92,0.62,-0.35,0.34,
2025-03-15 10:31:59.859552,2.15,-1.67,10.18,0.26,0.36,-0.06,
2025-03-15 10:31:59.886533,1.85,-2.24,9.85,0.27,-0.01,-0.05,
2025-03-15 10:31:59.924111,1.53,-1.52,9.55,-0.14,0.18,0.24,
2025-03-15 10:31:59.940056,1.78,-0.81,9.18,-0.32,1.04,0.17,
2025-03-15 10:31:59.984230,0.80,-0.91,9.39,-0.32,0.65,-0.01,
2025-03-15 10:31:59.995395,0.55,-1.58,9.48,-0.48,0.04,-0.24,
2025-03-15 10:32:00.019802,0.97,-2.08,8.95,0.43,0.22,-0.37,
2025-03-15 10:32:00.049726,1.30,-0.56,10.67,0.82,0.32,-0.14,
2025-03-15 10:32:00.077114,0.82,-0.41,10.25,0.26,0.34,-0.05,
2025-03-15 10:32:00.099997,0.91,-1.65,9.84,0.17,0.40,-0.05,
2025-03-15 10:32:00.127700,0.96,-2.07,10.07,0.57,0.32,-0.03,
2025-03-15 10:32:00.153439,1.10,-1.19,10.05,0.56,0.37,-0.04,
2025-03-15 10:32:00.182212,0.85,-0.77,10.57,0.40,0.31,-0.03,
2025-03-15 10:32:00.207200,0.92,-1.20,10.48,0.15,0.40,-0.12,
2025-03-15 10:32:00.233331,0.72,-1.02,10.37,-0.28,0.59,-0.00,
2025-03-15 10:32:00.260089,0.41,-0.68,9.55,0.20,0.48,0.14,
2025-03-15 10:32:00.286761,0.30,-1.00,9.55,-0.08,0.58,0.31,
2025-03-15 10:32:00.314093,0.23,-1.21,10.18,-0.33,0.51,0.37,
2025-03-15 10:32:00.340093,-0.42,-0.47,9.14,-0.15,0.45,0.28,
2025-03-15 10:32:00.366939,-0.33,-1.11,9.13,-0.42,0.12,0.08,
2025-03-15 10:32:00.393656,0.06,-1.77,10.36,-0.45,0.09,0.27,
2025-03-15 10:32:00.420685,0.29,-1.91,9.49,0.08,0.49,0.22,
2025-03-15 10:32:00.447011,-0.26,-1.23,9.89,-0.03,0.53,0.28,
2025-03-15 10:32:00.473645,-0.50,-1.07,9.91,-0.23,0.29,0.00,
2025-03-15 10:32:00.500341,-0.35,-1.32,9.98,-0.34,0.17,-0.19,
2025-03-15 10:32:00.527162,-0.13,-1.71,10.09,-0.01,0.11,-0.10,
2025-03-15 10:32:00.553643,-0.12,-1.88,9.47,-0.03,0.27,0.07,
2025-03-15 10:32:00.580441,-0.40,-1.85,10.08,-0.18,0.19,0.07,
2025-03-15 10:32:00.607052,-0.54,-1.74,11.02,-0.17,-0.10,0.06,
2025-03-15 10:32:00.633951,-0.52,-1.54,9.95,0.13,0.11,0.11,
2025-03-15 10:32:00.662512,-0.77,-1.40,9.80,-0.38,0.14,0.14,
2025-03-15 10:32:00.686847,-1.02,-0.84,9.95,-0.46,0.00,0.10,
2025-03-15 10:32:00.713712,-1.02,-0.80,9.88,-0.85,0.05,-0.19,
2025-03-15 10:32:00.742695,-1.21,-1.85,9.03,-0.64,0.11,-0.25,
2025-03-15 10:32:00.766835,-1.18,-1.85,8.70,-0.45,0.08,0.02,
2025-03-15 10:32:00.798619,-1.29,-1.70,8.69,-0.07,-0.18,0.14,
2025-03-15 10:32:00.820621,-0.92,-1.69,8.81,0.07,-0.13,0.18,
2025-03-15 10:32:00.847445,-1.00,-1.79,9.61,-0.28,0.09,0.11,
2025-03-15 10:32:00.874592,-1.00,-1.81,9.33,-0.21,0.01,-0.04,
2025-03-15 10:32:00.900061,-0.73,-2.10,9.89,-0.35,-0.04,-0.03,
2025-03-15 10:32:00.927072,-0.26,-3.23,10.55,-0.19,0.13,-0.01,
2025-03-15 10:32:00.953726,-0.41,-2.94,10.20,0.06,0.23,-0.03,
2025-03-15 10:32:00.988305,-0.68,-2.85,9.19,0.08,0.46,0.05,
2025-03-15 10:32:01.007438,-0.98,-2.89,9.39,0.01,0.29,0.05,
2025-03-15 10:32:01.034552,-0.84,-2.59,9.99,-0.04,0.30,0.15,
2025-03-15 10:32:01.062749,-1.00,-2.42,9.65,0.01,0.41,0.14,
2025-03-15 10:32:01.086889,-1.38,-2.23,9.35,-0.14,0.40,0.16,
2025-03-15 10:32:01.113583,-1.64,-2.25,9.92,0.12,0.20,0.06,
2025-03-15 10:32:01.140434,-1.49,-2.09,9.88,0.06,0.12,0.19,
2025-03-15 10:32:01.166961,-1.58,-2.15,9.54,0.07,0.06,0.24,
2025-03-15 10:32:01.193528,-1.58,-1.73,9.81,0.04,0.08,0.22,
2025-03-15 10:32:01.225034,-1.43,-2.08,9.41,-0.33,-0.00,0.05,
2025-03-15 10:32:01.247329,-1.53,-2.42,9.16,-0.19,0.04,0.09,
2025-03-15 10:32:01.275926,-1.30,-2.54,9.93,-0.23,0.13,0.17,
2025-03-15 10:32:01.302886,-1.37,-2.52,9.68,-0.27,0.16,0.22,
2025-03-15 10:32:01.326748,-1.76,-2.45,9.47,-0.11,0.16,0.26,
2025-03-15 10:32:01.357014,-1.87,-2.31,9.17,0.09,0.16,0.28,
2025-03-15 10:32:01.380066,-1.98,-1.90,9.73,-0.56,0.13,0.14,
2025-03-15 10:32:01.406957,-1.81,-2.29,9.99,-0.69,0.00,0.03,
2025-03-15 10:32:01.434445,-1.92,-2.72,9.63,-0.46,0.18,0.11,
2025-03-15 10:32:01.460030,-2.06,-2.76,9.59,-0.38,0.18,0.01,
2025-03-15 10:32:01.489347,-1.78,-2.95,9.56,-0.34,0.09,0.04,
2025-03-15 10:32:01.513239,-1.75,-3.00,9.16,-0.45,0.05,0.02,
2025-03-15 10:32:01.543278,-1.73,-3.25,8.96,-0.40,0.02,0.06,
2025-03-15 10:32:01.566958,-1.91,-3.24,8.80,-0.17,-0.05,0.10,
2025-03-15 10:32:01.594819,-1.98,-3.21,8.50,-0.45,-0.18,0.13,
2025-03-15 10:32:01.624783,-2.10,-3.61,8.33,-0.46,-0.48,0.23,
2025-03-15 10:32:01.649556,-1.66,-4.24,8.11,-0.13,-0.54,0.41,
2025-03-15 10:32:01.674760,-1.44,-4.29,8.44,-0.19,-0.46,0.49,
2025-03-15 10:32:01.700765,-0.55,-5.43,9.16,-0.33,-0.75,0.15,
2025-03-15 10:32:01.727245,-0.52,-2.96,8.46,0.26,-0.46,0.48,
2025-03-15 10:32:01.756578,-1.54,-3.06,8.03,-0.03,-0.02,0.46,
2025-03-15 10:32:01.780873,-1.43,-3.04,8.14,0.29,-0.01,0.44,
2025-03-15 10:32:01.809468,-1.32,-3.08,8.99,0.08,-0.04,0.32,
2025-03-15 10:32:01.833881,-1.39,-4.54,9.88,-0.10,-0.25,0.34,
2025-03-15 10:32:01.860889,-1.37,-4.86,8.58,0.56,-0.15,0.64,
2025-03-15 10:32:01.890464,-1.72,-4.14,8.73,0.74,-0.33,0.61,
2025-03-15 10:32:01.925122,-1.41,-1.81,8.66,0.39,-0.59,0.54,
2025-03-15 10:32:01.940525,-1.32,-2.43,9.63,-0.22,-1.02,0.81,
2025-03-15 10:32:01.971426,-1.42,-2.58,9.34,0.25,-0.77,0.77,
2025-03-15 10:32:01.995920,-1.70,-1.87,10.53,0.74,-0.92,0.68,
2025-03-15 10:32:02.020798,-0.58,-2.20,10.64,-0.15,-0.82,0.44,
2025-03-15 10:32:02.048941,-0.28,-2.27,8.81,-0.16,-0.23,0.62,
2025-03-15 10:32:02.074107,-1.31,-1.03,8.93,0.56,0.09,0.61,
2025-03-15 10:32:02.107103,-1.33,-1.70,10.33,-0.28,-0.48,0.10,
2025-03-15 10:32:02.127504,-0.77,-3.40,10.37,0.11,-0.73,0.09,
2025-03-15 10:32:02.155915,-0.37,-3.54,9.99,0.47,-0.68,0.60,
2025-03-15 10:32:02.180851,-0.56,-2.49,9.67,0.25,-0.70,0.86,
2025-03-15 10:32:02.209069,-0.46,-1.56,10.12,-0.48,-1.00,0.46,
2025-03-15 10:32:02.234231,-0.29,-3.09,9.85,0.63,-1.12,0.53,
2025-03-15 10:32:02.260475,0.04,-1.76,9.75,0.39,-1.14,0.96,
2025-03-15 10:32:02.287824,0.66,-2.43,10.20,-0.50,-1.13,0.80,
2025-03-15 10:32:02.314150,2.57,-3.45,9.51,0.26,-0.99,0.26,
2025-03-15 10:32:02.341176,1.46,-3.63,10.21,0.12,-0.01,0.55,
2025-03-15 10:32:02.368072,0.84,-2.10,10.25,-0.59,-0.53,0.73,
2025-03-15 10:32:02.394463,0.83,-1.96,10.54,0.17,-0.34,0.92,
2025-03-15 10:32:02.421049,0.89,-1.86,9.76,1.03,0.78,-0.64,
2025-03-15 10:32:02.447868,0.92,-1.80,9.86,0.69,0.18,-0.39,
2025-03-15 10:32:02.474682,2.36,-2.34,8.10,-0.47,0.16,0.09,
2025-03-15 10:32:02.504485,1.53,-2.80,11.50,-0.85,0.08,-0.03,
2025-03-15 10:32:02.527770,0.70,-2.59,10.61,0.37,0.22,-0.02,
2025-03-15 10:32:02.554943,1.40,-1.66,11.10,1.97,-0.02,-0.08,
2025-03-15 10:32:02.581275,0.87,-1.13,8.32,-0.38,0.31,-0.06,
2025-03-15 10:32:02.631444,2.04,-2.84,9.66,-0.84,0.11,-0.10,
2025-03-15 10:32:02.635852,1.25,-2.40,11.20,-1.59,-0.02,-0.21,
2025-03-15 10:32:02.663188,0.75,-2.13,9.65,-0.25,0.10,-0.14,
2025-03-15 10:32:02.693706,0.83,-1.58,8.67,2.51,0.12,0.32,
2025-03-15 10:32:02.714919,1.33,2.03,9.62,1.29,0.03,0.64,
2025-03-15 10:32:02.740954,0.89,0.90,9.50,0.14,0.21,0.86,
2025-03-15 10:32:02.767741,-0.61,-1.59,9.92,-0.02,0.16,0.13,
2025-03-15 10:32:02.794328,0.17,-2.95,9.81,0.06,0.19,-0.22,
2025-03-15 10:32:02.820791,1.06,-2.28,9.34,0.19,0.25,-0.01,
2025-03-15 10:32:02.847543,1.01,0.72,7.98,0.66,0.40,0.34,
2025-03-15 10:32:02.874433,0.68,0.45,6.86,2.95,0.76,0.31,
2025-03-15 10:32:02.901011,-0.61,-2.98,14.32,1.46,1.60,0.72,
2025-03-15 10:32:02.927770,-0.12,-1.00,11.19,-0.69,-0.39,-0.35,
2025-03-15 10:32:02.955320,-0.10,0.75,10.32,-0.01,0.03,0.01,
2025-03-15 10:32:02.981175,0.14,-0.41,10.86,-0.32,-0.35,-0.38,
2025-03-15 10:32:03.007909,-0.31,0.15,11.34,-0.08,-0.35,-0.47,
2025-03-15 10:32:03.034798,0.16,-0.24,10.50,-0.21,-0.40,-0.03,
2025-03-15 10:32:03.061190,0.08,-0.52,10.72,-0.29,-0.55,-0.02,
2025-03-15 10:32:03.087981,0.02,0.01,10.24,-0.06,-0.55,-0.07,
2025-03-15 10:32:03.114814,0.33,-0.11,9.23,0.45,-0.36,-0.08,
2025-03-15 10:32:03.141273,0.54,-0.24,8.37,-0.10,-0.23,-0.14,
2025-03-15 10:32:03.168303,0.51,-0.68,8.98,-0.66,-0.03,-0.12,
2025-03-15 10:32:03.200443,0.43,-0.06,8.38,-0.07,0.29,0.08,
2025-03-15 10:32:03.222028,0.44,0.04,8.76,-0.52,0.49,0.08,
2025-03-15 10:32:03.247960,0.99,0.51,10.49,-0.17,0.49,0.05,
2025-03-15 10:32:03.277634,0.49,0.28,11.16,0.57,0.37,0.09,
2025-03-15 10:32:03.306340,0.29,-0.41,11.20,0.66,0.33,0.06,
2025-03-15 10:32:03.328100,0.12,-0.52,10.90,0.56,0.21,-0.05,
2025-03-15 10:32:03.358999,0.29,-0.23,9.91,0.01,-0.11,-0.09,
2025-03-15 10:32:03.382304,0.21,0.64,9.32,-0.49,-0.08,-0.22,
2025-03-15 10:32:03.408039,0.04,0.22,9.41,-0.45,0.09,-0.15,
2025-03-15 10:32:03.459852,0.03,0.14,10.05,0.01,0.16,-0.02,
2025-03-15 10:32:03.473468,-0.21,0.09,10.15,-0.27,0.03,-0.09,
2025-03-15 10:32:03.489346,0.39,0.02,9.97,-0.21,0.00,-0.06,
2025-03-15 10:32:03.513734,0.12,0.12,10.02,-0.10,0.01,-0.02,
2025-03-15 10:32:03.540349,-0.00,-0.36,9.93,0.05,0.02,-0.03,
2025-03-15 10:32:03.566979,0.10,-0.34,9.59,-0.11,0.06,-0.10,
2025-03-15 10:32:03.597592,0.20,0.10,10.03,-0.18,0.17,-0.06,
2025-03-15 10:32:03.621615,0.08,-0.04,10.38,-0.16,0.11,-0.04,
2025-03-15 10:32:03.647094,0.00,-0.11,10.33,0.12,-0.00,0.02,
2025-03-15 10:32:03.673671,0.25,-0.04,9.88,0.14,-0.01,0.00,
2025-03-15 10:32:03.701280,0.00,-0.29,10.20,0.09,-0.10,-0.05,
2025-03-15 10:32:03.726965,-0.01,-0.17,9.93,0.14,-0.14,-0.01,
2025-03-15 10:32:03.753858,0.17,0.17,9.77,0.18,-0.11,-0.01,
2025-03-15 10:32:03.780540,0.09,0.08,9.80,0.16,-0.01,-0.02,
2025-03-15 10:32:03.807053,0.11,0.04,9.84,0.03,0.00,-0.04,
2025-03-15 10:32:03.836923,0.32,0.08,9.84,-0.14,-0.07,-0.00,
2025-03-15 10:32:03.860992,0.09,0.07,9.84,-0.31,-0.05,-0.00,
2025-03-15 10:32:03.887338,0.11,0.33,10.04,-0.03,0.01,-0.01,
2025-03-15 10:32:03.920288,0.20,0.12,10.11,0.00,-0.04,0.00,
2025-03-15 10:32:03.940682,0.25,-0.22,9.99,-0.00,-0.04,0.01,
2025-03-15 10:32:03.966763,0.18,-0.11,9.79,-0.24,-0.04,0.01,
2025-03-15 10:32:03.994456,0.20,-0.06,9.72,-0.59,-0.07,-0.04,
2025-03-15 10:32:04.022468,0.03,-0.21,10.09,-0.29,-0.02,-0.04,
2025-03-15 10:32:04.048575,0.30,-0.30,10.28,0.24,-0.00,0.02,
2025-03-15 10:32:04.073890,0.28,-0.04,9.76,0.15,-0.00,0.04,
2025-03-15 10:32:04.101959,0.12,-0.15,9.75,-0.06,-0.01,-0.01,
2025-03-15 10:32:04.127187,0.21,-0.26,9.85,-0.11,0.03,-0.02,
2025-03-15 10:32:04.154892,0.08,-0.29,10.06,-0.01,0.05,-0.01,
2025-03-15 10:32:04.180675,0.27,-0.05,10.03,0.04,0.06,0.01,
2025-03-15 10:32:04.209661,0.12,-0.08,10.01,0.06,0.03,0.02,
2025-03-15 10:32:04.238093,0.21,-0.20,9.86,0.04,-0.00,-0.00,
2025-03-15 10:32:04.262753,0.20,-0.03,9.59,0.02,0.07,-0.00,
2025-03-15 10:32:04.286942,0.11,-0.03,9.70,-0.07,0.10,0.02,
2025-03-15 10:32:04.313824,0.13,-0.29,10.33,-0.01,0.02,0.02,
2025-03-15 10:32:04.340658,0.17,-0.15,10.18,0.05,-0.02,0.00,
2025-03-15 10:32:04.366928,0.22,0.03,9.87,0.00,-0.03,-0.01,
2025-03-15 10:32:04.393762,0.12,-0.04,10.14,-0.05,-0.10,0.00,
2025-03-15 10:32:04.420261,0.26,-0.11,9.82,0.07,-0.09,0.00,
2025-03-15 10:32:04.449011,0.26,-0.17,9.69,0.01,-0.04,-0.00,
2025-03-15 10:32:04.473402,0.21,-0.11,10.04,-0.05,-0.00,-0.01,
2025-03-15 10:32:04.500854,0.30,-0.20,10.03,-0.02,-0.03,0.00,
2025-03-15 10:32:04.527782,0.22,-0.08,9.44,-0.01,0.05,0.02,
2025-03-15 10:32:04.554121,0.12,0.07,9.74,-0.11,0.14,-0.01,
2025-03-15 10:32:04.580195,0.13,-0.15,9.96,-0.04,0.13,0.03,
2025-03-15 10:32:04.608929,0.19,-0.02,10.06,-0.07,0.07,-0.00,
2025-03-15 10:32:04.634171,0.09,-0.13,10.07,0.01,0.04,0.03,
2025-03-15 10:32:04.663190,0.12,-0.24,9.96,-0.04,0.00,-0.00,
2025-03-15 10:32:04.686783,0.11,-0.31,9.95,-0.03,0.01,-0.02,
2025-03-15 10:32:04.713457,0.11,-0.05,9.94,0.01,-0.00,-0.04,
2025-03-15 10:32:04.740423,0.11,-0.08,9.97,0.04,-0.01,-0.02,
2025-03-15 10:32:04.768787,0.07,-0.10,9.83,0.04,0.01,0.00,
2025-03-15 10:32:04.793329,0.05,-0.09,9.88,-0.02,0.03,0.01,
2025-03-15 10:32:04.820088,0.04,0.04,9.63,-0.04,0.04,0.02,
2025-03-15 10:32:04.849084,0.11,-0.08,9.84,-0.05,0.12,0.06,
2025-03-15 10:32:04.878331,0.10,-0.25,9.99,0.01,0.10,0.04,
2025-03-15 10:32:04.899883,0.07,-0.30,10.11,0.09,0.04,0.01,
2025-03-15 10:32:04.926668,0.15,-0.17,9.85,0.12,0.05,-0.00,
2025-03-15 10:32:04.954137,0.04,0.17,9.85,0.12,0.06,-0.03,
2025-03-15 10:32:04.979760,-0.02,0.13,9.98,0.04,0.02,0.01,
2025-03-15 10:32:05.007984,0.01,0.08,9.94,-0.10,0.00,0.00,
2025-03-15 10:32:05.033111,-0.03,-0.01,9.96,-0.06,0.00,0.01,
2025-03-15 10:32:05.059695,0.05,-0.07,9.87,-0.02,0.01,-0.00,
2025-03-15 10:32:05.086200,0.03,0.00,9.90,-0.08,-0.00,-0.03,
2025-03-15 10:32:05.113019,-0.10,0.06,9.95,-0.07,-0.03,0.01,
2025-03-15 10:32:05.139646,0.01,-0.05,9.88,0.02,0.01,0.05,
2025-03-15 10:32:05.167063,0.12,-0.05,9.81,-0.02,0.04,0.01,
2025-03-15 10:32:05.195333,0.10,0.00,9.95,-0.05,0.02,-0.03,
2025-03-15 10:32:05.219550,0.02,0.03,10.00,-0.03,0.01,-0.02,
2025-03-15 10:32:05.248340,0.11,0.11,9.69,-0.01,0.03,0.02,
2025-03-15 10:32:05.272869,0.04,-0.14,9.85,-0.05,0.08,-0.01,
2025-03-15 10:32:05.299292,-0.04,-0.00,10.04,-0.06,0.06,-0.03,
2025-03-15 10:32:05.329081,-0.02,-0.13,10.00,-0.01,0.03,-0.03,
2025-03-15 10:32:05.353474,-0.02,0.01,9.89,0.01,-0.02,-0.06,
2025-03-15 10:32:05.380084,-0.05,0.01,9.84,0.03,0.02,-0.03,
2025-03-15 10:32:05.405959,0.03,-0.00,9.97,-0.02,0.04,-0.03,
2025-03-15 10:32:05.432945,-0.06,0.15,9.95,-0.05,0.01,-0.01,
2025-03-15 10:32:05.459390,-0.07,-0.04,10.02,0.10,0.04,0.03,
2025-03-15 10:32:05.492794,0.05,0.06,9.87,0.11,0.01,0.04,
2025-03-15 10:32:05.513105,0.06,0.03,9.74,-0.03,0.02,-0.00,
2025-03-15 10:32:05.540777,0.05,-0.02,9.88,-0.12,0.02,-0.03,
2025-03-15 10:32:05.569444,-0.01,0.01,9.87,-0.08,0.04,-0.03,
2025-03-15 10:32:05.594301,-0.08,0.07,9.87,-0.09,0.08,-0.01,
2025-03-15 10:32:05.618752,-0.08,-0.08,10.00,-0.16,0.05,-0.04,
2025-03-15 10:32:05.645968,-0.10,0.11,10.04,-0.09,0.04,-0.01,
2025-03-15 10:32:05.672254,-0.06,-0.07,9.99,-0.01,0.01,0.01,
2025-03-15 10:32:05.698892,-0.11,0.01,9.95,-0.06,-0.05,0.01,
2025-03-15 10:32:05.725555,-0.01,-0.12,9.95,0.05,-0.02,0.02,
2025-03-15 10:32:05.775042,0.01,-0.10,9.91,0.04,0.00,0.01,
2025-03-15 10:32:05.783273,-0.04,0.00,9.92,-0.02,-0.01,-0.00,
2025-03-15 10:32:05.804753,-0.10,-0.11,9.86,-0.03,-0.01,-0.02,
2025-03-15 10:32:05.831632,-0.00,-0.09,10.05,-0.07,-0.03,0.00,
2025-03-15 10:32:05.857940,0.00,0.14,9.81,-0.11,-0.00,-0.01,
2025-03-15 10:32:05.884912,-0.03,0.06,9.73,-0.12,0.02,-0.00,
2025-03-15 10:32:05.911136,0.02,-0.16,9.78,-0.06,0.08,0.03,
2025-03-15 10:32:05.945658,0.01,-0.19,9.79,-0.19,0.10,-0.01,
2025-03-15 10:32:05.964753,-0.08,-0.25,9.99,-0.24,0.09,-0.04,
2025-03-15 10:32:06.010493,-0.22,-0.10,10.20,-0.12,0.04,0.01,
2025-03-15 10:32:06.018050,-0.15,-0.32,10.02,0.12,-0.03,0.03,
2025-03-15 10:32:06.045189,-0.08,-0.17,9.92,0.08,-0.03,0.00,
2025-03-15 10:32:06.092144,-0.14,-0.10,9.84,-0.04,-0.04,-0.01,
2025-03-15 10:32:06.100347,-0.05,0.04,9.70,-0.04,0.00,0.02,
2025-03-15 10:32:06.134279,-0.08,-0.09,10.14,-0.08,0.02,0.01,
2025-03-15 10:32:06.154276,-0.09,-0.22,10.07,-0.03,-0.01,0.01,
2025-03-15 10:32:06.185235,-0.11,-0.11,9.84,-0.04,0.01,-0.00,
2025-03-15 10:32:06.211983,-0.08,0.01,9.90,-0.12,0.00,0.01,
2025-03-15 10:32:06.229406,-0.13,-0.13,10.09,-0.06,-0.04,0.02,
2025-03-15 10:32:06.257600,-0.04,-0.24,9.92,-0.06,-0.03,-0.02,
2025-03-15 10:32:06.287746,-0.20,-0.28,10.28,-0.01,-0.13,-0.02,
2025-03-15 10:32:06.309394,0.19,-0.42,10.29,-0.04,-0.29,-0.04,
2025-03-15 10:32:06.338570,0.08,-0.30,9.86,-0.10,-0.32,0.04,
2025-03-15 10:32:06.362931,0.23,-0.42,9.80,-0.30,-0.28,0.03,
2025-03-15 10:32:06.389443,0.39,-0.30,9.68,-0.15,-0.20,0.09,
2025-03-15 10:32:06.416431,0.06,-0.18,9.75,-0.04,-0.09,0.02,
2025-03-15 10:32:06.442926,0.43,-0.23,9.55,-0.08,-0.03,-0.01,
2025-03-15 10:32:06.469974,0.18,-0.09,9.82,-0.18,0.05,0.02,
2025-03-15 10:32:06.500811,0.31,-0.23,10.01,-0.24,0.12,0.00,
2025-03-15 10:32:06.523058,0.20,-0.40,9.71,-0.12,0.12,0.02,
2025-03-15 10:32:06.549738,0.18,-0.47,9.63,-0.29,0.19,-0.04,
2025-03-15 10:32:06.582621,0.20,-0.52,9.67,-0.27,0.26,-0.02,
2025-03-15 10:32:06.603089,-0.02,-0.67,9.86,-0.11,0.29,0.03,
2025-03-15 10:32:06.630357,0.11,-0.78,10.19,0.03,0.28,0.03,
2025-03-15 10:32:06.659185,-0.11,-0.68,9.77,-0.21,0.23,-0.07,
2025-03-15 10:32:06.684964,-0.07,-0.34,9.80,-0.64,0.21,-0.08,
2025-03-15 10:32:06.711478,-0.27,-0.70,9.94,-0.52,0.18,-0.02,
2025-03-15 10:32:06.737456,-0.23,-1.20,9.62,-0.43,0.32,-0.05,
2025-03-15 10:32:06.764064,-0.32,-1.20,9.88,0.01,0.39,-0.06,
2025-03-15 10:32:06.801032,-0.47,-1.25,9.50,-0.23,0.52,-0.21,
2025-03-15 10:32:06.818901,-1.03,-0.93,10.37,-0.09,0.68,-0.24,
2025-03-15 10:32:06.844048,-1.10,-0.33,13.18,-0.12,0.25,-0.10,
2025-03-15 10:32:06.871967,-1.02,-0.92,8.82,-0.03,0.05,-0.09,
2025-03-15 10:32:06.907684,-0.87,-1.05,9.81,-0.03,0.01,-0.08,
2025-03-15 10:32:06.923801,-0.65,-0.79,9.90,-0.06,0.00,-0.01,
2025-03-15 10:32:06.950299,-1.12,-0.68,9.51,-0.05,0.03,0.01,
2025-03-15 10:32:06.977157,-1.06,-1.03,9.97,-0.08,0.02,0.01,
2025-03-15 10:32:07.003951,-0.53,-1.41,10.03,-0.03,0.02,-0.10,
2025-03-15 10:32:07.032076,-0.46,-1.25,9.96,-0.04,0.01,-0.15,
2025-03-15 10:32:07.056842,-0.64,-0.93,9.95,-0.02,0.02,-0.11,
2025-03-15 10:32:07.084117,-0.64,-1.00,9.90,-0.04,0.01,-0.04,
2025-03-15 10:32:07.113046,-0.85,-0.58,10.00,-0.04,0.01,0.08,
2025-03-15 10:32:07.136799,-1.39,-0.52,9.96,-0.02,0.00,0.35,
2025-03-15 10:32:07.163488,-0.94,-1.09,9.66,-0.04,0.01,0.30,
2025-03-15 10:32:07.189977,-0.87,-1.22,9.76,-0.00,-0.01,0.19,
2025-03-15 10:32:07.223638,-0.58,-1.58,10.02,-0.06,0.02,-0.00,
2025-03-15 10:32:07.243403,-0.19,-1.63,9.76,-0.04,0.03,-0.39,
2025-03-15 10:32:07.271195,-0.55,-0.84,9.98,-0.02,-0.00,-0.14,
2025-03-15 10:32:07.297354,-0.56,-0.96,9.74,-0.03,0.01,-0.01,
2025-03-15 10:32:07.324400,-0.92,-0.83,9.86,-0.02,-0.00,0.08,
2025-03-15 10:32:07.349942,-0.77,-1.06,9.75,-0.01,-0.00,0.14,
2025-03-15 10:32:07.376992,-0.94,-1.01,9.85,0.00,0.00,0.11,
2025-03-15 10:32:07.403046,-0.85,-1.04,9.71,-0.02,0.01,0.10,
2025-03-15 10:32:07.431614,-0.78,-1.03,9.88,0.00,0.01,0.11,
2025-03-15 10:32:07.456633,-0.91,-0.99,9.98,-0.01,0.02,0.07,
2025-03-15 10:32:07.486681,-1.06,-1.14,9.99,-0.02,0.01,0.05,
2025-03-15 10:32:07.512173,-1.11,-1.07,9.75,-0.03,0.02,0.01,
2025-03-15 10:32:07.538748,-1.08,-0.95,10.09,-0.10,0.03,-0.03,
2025-03-15 10:32:07.563409,-0.70,-1.02,9.74,-0.02,0.00,-0.06,
2025-03-15 10:32:07.589931,-0.71,-1.11,9.57,-0.02,0.01,-0.10,
2025-03-15 10:32:07.617846,-0.62,-1.16,9.70,-0.03,0.01,-0.14,
2025-03-15 10:32:07.643166,-0.62,-1.12,9.93,-0.08,-0.02,-0.12,
2025-03-15 10:32:07.669884,-0.82,-1.13,9.79,-0.05,-0.02,-0.13,
2025-03-15 10:32:07.696730,-0.70,-0.95,10.03,0.05,0.03,-0.13,
2025-03-15 10:32:07.723289,-0.41,-1.13,9.56,-0.02,-0.03,-0.11,
2025-03-15 10:32:07.749924,-0.62,-1.11,9.69,-0.02,-0.01,-0.13,
2025-03-15 10:32:07.776557,-0.81,-1.02,9.83,-0.04,-0.01,-0.12,
2025-03-15 10:32:07.803146,-0.79,-1.09,9.74,-0.00,0.01,-0.09,
2025-03-15 10:32:07.829876,-0.13,-1.30,10.37,-0.02,-0.03,-0.10,
2025-03-15 10:32:07.856728,-0.70,-0.90,9.87,-0.10,0.06,-0.08,
2025-03-15 10:32:07.885952,-0.68,-0.99,9.92,-0.04,0.01,0.01,
2025-03-15 10:32:07.910980,-0.51,-1.22,10.09,-0.04,-0.01,-0.04,
2025-03-15 10:32:07.939689,-0.51,-0.85,9.87,-0.05,0.00,0.04,
2025-03-15 10:32:07.963114,-0.47,-1.02,9.88,-0.06,0.00,0.13,
2025-03-15 10:32:07.990090,-0.69,-1.26,10.14,-0.02,0.01,0.04,
2025-03-15 10:32:08.016622,-0.77,-1.18,9.67,-0.01,0.01,0.03,
2025-03-15 10:32:08.043367,-0.41,-1.08,9.78,-0.04,-0.01,0.06,
2025-03-15 10:32:08.069832,-0.74,-1.07,9.97,-0.05,0.02,0.08,
2025-03-15 10:32:08.099844,-0.61,-1.11,9.55,-0.02,0.01,0.11,
2025-03-15 10:32:08.124796,-0.76,-1.32,10.22,-0.03,0.01,0.05,
2025-03-15 10:32:08.149548,-0.87,-1.12,10.00,-0.02,0.01,0.07,
2025-03-15 10:32:08.176535,-0.85,-0.83,9.87,-0.00,-0.00,0.10,
2025-03-15 10:32:08.228961,-0.91,-1.04,10.16,-0.04,-0.01,0.16,
2025-03-15 10:32:08.257609,-0.72,-0.91,9.84,-0.05,-0.02,0.21,
2025-03-15 10:32:08.269224,-0.73,-0.96,9.94,-0.09,-0.08,0.29,
2025-03-15 10:32:08.284484,-0.94,-0.86,10.03,-0.05,-0.09,0.38,
2025-03-15 10:32:08.309791,-0.76,-1.03,9.70,-0.05,-0.10,0.38,
2025-03-15 10:32:08.336316,-0.70,-1.26,9.67,-0.04,-0.17,0.35,
2025-03-15 10:32:08.363186,-0.39,-1.39,10.25,0.22,-0.12,0.31,
2025-03-15 10:32:08.390139,-0.91,-1.06,9.38,0.09,0.03,0.26,
2025-03-15 10:32:08.417990,-0.06,-1.36,10.17,0.11,-0.10,0.42,
2025-03-15 10:32:08.444300,-0.67,-1.08,10.06,-0.06,-0.19,0.23,
2025-03-15 10:32:08.470058,-1.19,-0.76,10.56,-0.01,-0.24,0.27,
2025-03-15 10:32:08.496804,-0.00,-2.32,9.62,-0.10,-0.07,-0.06,
2025-03-15 10:32:08.524569,-1.27,-0.71,9.90,0.04,0.19,-0.24,
2025-03-15 10:32:08.550035,-0.70,-0.59,10.11,0.01,-0.06,-0.08,
2025-03-15 10:32:08.577707,0.27,-1.10,9.81,-0.17,0.05,0.11,
2025-03-15 10:32:08.604547,0.22,-1.40,10.04,-0.01,-0.09,0.12,
2025-03-15 10:32:08.630969,0.31,-2.22,8.43,-0.17,-0.21,0.10,
2025-03-15 10:32:08.657326,-0.63,-1.45,10.44,-0.04,-0.06,-0.11,
